Folder: nife-mo-alkaline-oer-data/fig_6_polarization_curves/Activity_1

Note: README.md
# Raw Data and Plot Scripts for the Manuscript

This repository contains the raw data and plotting scripts for the figures in the following manuscript:

**Varghese, N. K., Mkrtchian, E., Singh, A., Savio, L., Boccia, M., Marzocchi, V., & Comite, A., NiFe on CeO2, TiO2 and ZrO2 Supports as Efficient Oxygen Evolution Reaction Catalysts in Alkaline Media. ACS Appl. Energy Mater. 2025; doi:10.1021/acsaem.4c03268**

Each folder corresponds to a specific figure in the paper, with the folder name matching the figure number/details. Inside each folder, you will find the raw data files and the Python scripts used to generate the plots for that figure.

The **XPS plots** were generated using a commercial software. The folder `fig_3_and_si_xps` contains only the raw XPS data.

If you use this data, please cite the above article.

## License

This project is licensed under the **GNU General Public License (GPL)**, which allows you to freely use, modify and distribute the code, provided that any derivative works are also licensed under GPL.

File: CeO2_Activity_1.txt
Ewe/V	<I>/mA	cycle number
-4,1827065E-005	-5,754450708627701E-002	1,000000000000000E+000
1,2461100E-002	-5,192923797714213E-003	1,000000000000000E+000
2,5715798E-002	-3,423235289274157E-003	1,000000000000000E+000
3,8711410E-002	-2,573405471579582E-003	1,000000000000000E+000
5,1707018E-002	-2,036422201536676E-003	1,000000000000000E+000
6,4660162E-002	-1,645278653115154E-003	1,000000000000000E+000
7,7721603E-002	-1,356418093378959E-003	1,000000000000000E+000
9,0694912E-002	-1,122029403277320E-003	1,000000000000000E+000
1,0369775E-001	-9,391560920437398E-004	1,000000000000000E+000
1,1665216E-001	-7,839133864359221E-004	1,000000000000000E+000
1,2965734E-001	-6,632487466523840E-004	1,000000000000000E+000
1,4262427E-001	-5,436939395653097E-004	1,000000000000000E+000
1,5567511E-001	-4,420232036117487E-004	1,000000000000000E+000
1,6866434E-001	-3,497912824300596E-004	1,000000000000000E+000
1,8172154E-001	-2,652137788434686E-004	1,000000000000000E+000
1,9467150E-001	-1,967199635511280E-004	1,000000000000000E+000
2,0769686E-001	-1,406839850895689E-004	1,000000000000000E+000
2,2061601E-001	-8,890838612003629E-005	1,000000000000000E+000
2,3363072E-001	-4,120838577123455E-005	1,000000000000000E+000
2,4664178E-001	6,665473260797933E-006	1,000000000000000E+000
2,5969842E-001	4,195841875763526E-005	1,000000000000000E+000
2,7268341E-001	7,931808010212116E-005	1,000000000000000E+000
2,8565353E-001	1,076481082941041E-004	1,000000000000000E+000
2,9869479E-001	1,297562535802562E-004	1,000000000000000E+000
3,1168193E-001	1,489117388909129E-004	1,000000000000000E+000
3,2466480E-001	1,635630464557776E-004	1,000000000000000E+000
3,3767313E-001	1,749110705888605E-004	1,000000000000000E+000
3,5063690E-001	2,012678614457231E-004	1,000000000000000E+000
3,6368349E-001	2,195215534862350E-004	1,000000000000000E+000
3,7660691E-001	2,554915483536147E-004	1,000000000000000E+000
3,8966197E-001	3,016893555311938E-004	1,000000000000000E+000
4,0261191E-001	3,485568157201028E-004	1,000000000000000E+000
4,1560647E-001	4,251907549647290E-004	1,000000000000000E+000
4,2863080E-001	5,492615678938596E-004	1,000000000000000E+000
4,4161791E-001	7,990312892832741E-004	1,000000000000000E+000
4,5462304E-001	1,391727254116730E-003	1,000000000000000E+000
4,6763346E-001	3,164808006603169E-003	1,000000000000000E+000
4,8068702E-001	1,051822049532886E-002	1,000000000000000E+000
4,9371397E-001	3,897794263987503E-002	1,000000000000000E+000
5,0673819E-001	9,075580378403014E-002	1,000000000000000E+000
5,1986760E-001	1,201455931373516E-001	1,000000000000000E+000
5,3285789E-001	1,181798497217024E-001	1,000000000000000E+000
5,4587156E-001	1,178619582850124E-001	1,000000000000000E+000
5,5886614E-001	1,529751074650312E-001	1,000000000000000E+000
5,7184684E-001	2,265608891851989E-001	1,000000000000000E+000
5,8483613E-001	3,484054679629693E-001	1,000000000000000E+000
5,9784657E-001	5,323303193403000E-001	1,000000000000000E+000
6,1081463E-001	7,918860573245592E-001	1,000000000000000E+000
6,2391222E-001	1,141668168789881E+000	1,000000000000000E+000
6,3694066E-001	1,594611325839743E+000	1,000000000000000E+000
6,4993095E-001	2,164430209365840E+000	1,000000000000000E+000
6,6292763E-001	2,847702264245137E+000	1,000000000000000E+000
6,7592961E-001	3,647861027933841E+000	1,000000000000000E+000
6,8888068E-001	4,542171453875479E+000	1,000000000000000E+000
7,0195585E-001	5,522440467325481E+000	1,000000000000000E+000
7,1494287E-001	6,586741124746410E+000	1,000000000000000E+000
7,2785693E-001	7,702460926068383E+000	1,000000000000000E+000
7,4091834E-001	8,869957213634223E+000	1,000000000000000E+000
7,5394154E-001	1,009725075554688E+001	1,000000000000000E+000
7,6704764E-001	1,136907197558690E+001	1,000000000000000E+000
7,8002197E-001	1,264882415830408E+001	1,000000000000000E+000
7,9303342E-001	1,396248584485659E+001	1,000000000000000E+000
8,0601102E-001	1,530525951942343E+001	1,000000000000000E+000
8,1902146E-001	1,663997980121030E+001	1,000000000000000E+000
8,3202040E-001	1,801720374565815E+001	1,000000000000000E+000
8,4499782E-001	1,940545471347104E+001	1,000000000000000E+000
8,5797441E-001	2,085587855004394E+001	1,000000000000000E+000
8,7100393E-001	2,230411374176978E+001	1,000000000000000E+000
8,8398159E-001	2,371016210277065E+001	1,000000000000000E+000
8,9693266E-001	2,513318812245291E+001	1,000000000000000E+000
9,1001731E-001	2,663277893001532E+001	1,000000000000000E+000
9,2302895E-001	2,808687086440546E+001	1,000000000000000E+000
9,3597996E-001	2,953188182329109E+001	1,000000000000000E+000
9,4899780E-001	3,101870058723597E+001	1,000000000000000E+000
9,6198076E-001	3,251140905156427E+001	1,000000000000000E+000
9,7508258E-001	3,397877570588031E+001	1,000000000000000E+000
9,8802185E-001	3,539178727921967E+001	1,000000000000000E+000
9,9982321E-001	3,689670989092659E+001	1,000000000000000E+000
9,8731041E-001	3,525991393054693E+001	1,000000000000000E+000
9,7436047E-001	3,363811038681172E+001	1,000000000000000E+000
9,6132022E-001	3,210680263680410E+001	1,000000000000000E+000
9,4827360E-001	3,061979597360903E+001	1,000000000000000E+000
9,3532628E-001	2,907083193768074E+001	1,000000000000000E+000
9,2229307E-001	2,757038202226295E+001	1,000000000000000E+000
9,0931118E-001	2,604635119357084E+001	1,000000000000000E+000
8,9629656E-001	2,454358783033160E+001	1,000000000000000E+000
8,8329244E-001	2,304969728574190E+001	1,000000000000000E+000
8,7027460E-001	2,162825972801434E+001	1,000000000000000E+000
8,5731930E-001	2,018090270503581E+001	1,000000000000000E+000
8,4431934E-001	1,877643402471566E+001	1,000000000000000E+000
8,3128452E-001	1,736716315981482E+001	1,000000000000000E+000
8,1831008E-001	1,599042639724240E+001	1,000000000000000E+000
8,0526358E-001	1,464292967238396E+001	1,000000000000000E+000
7,9233265E-001	1,331268839541480E+001	1,000000000000000E+000
7,7926278E-001	1,200701423445527E+001	1,000000000000000E+000
7,6633930E-001	1,076320280901700E+001	1,000000000000000E+000
7,5331718E-001	9,532996225932393E+000	1,000000000000000E+000
7,4035233E-001	8,361942039055037E+000	1,000000000000000E+000
7,2726864E-001	7,225159104381291E+000	1,000000000000000E+000
7,1426666E-001	6,148635896763317E+000	1,000000000000000E+000
7,0133257E-001	5,135945224910628E+000	1,000000000000000E+000
6,8827116E-001	4,196363465383227E+000	1,000000000000000E+000
6,7526925E-001	3,342112387253835E+000	1,000000000000000E+000
6,6217697E-001	2,584393311283478E+000	1,000000000000000E+000
6,4921004E-001	1,944981652559061E+000	1,000000000000000E+000
6,3624310E-001	1,412105930441161E+000	1,000000000000000E+000
6,2324113E-001	9,932039157992207E-001	1,000000000000000E+000
6,1023599E-001	6,774510006825096E-001	1,000000000000000E+000
5,9705365E-001	4,455912526292982E-001	1,000000000000000E+000
5,8408862E-001	2,816310285563133E-001	1,000000000000000E+000
5,7099849E-001	1,700670123945022E-001	1,000000000000000E+000
5,5802405E-001	9,615851071443593E-002	1,000000000000000E+000
5,4509962E-001	4,944934465794626E-002	1,000000000000000E+000
5,3199786E-001	2,096499170096441E-002	1,000000000000000E+000
5,1879835E-001	3,422448755863727E-003	1,000000000000000E+000
5,0582713E-001	-6,163518370809969E-003	1,000000000000000E+000
4,9281138E-001	-1,113356290967997E-002	1,000000000000000E+000
4,7976375E-001	-1,504574129711661E-002	1,000000000000000E+000
4,6673587E-001	-1,903892806229457E-002	1,000000000000000E+000
4,5369929E-001	-2,613238106553517E-002	1,000000000000000E+000
4,4072384E-001	-3,561786480819240E-002	1,000000000000000E+000
4,2776850E-001	-3,653376648422191E-002	1,000000000000000E+000
4,1473892E-001	-3,069337286148006E-002	1,000000000000000E+000
4,0174016E-001	-2,341839976401794E-002	1,000000000000000E+000
3,8877746E-001	-1,833919416310564E-002	1,000000000000000E+000
3,7569478E-001	-1,528056174893644E-002	1,000000000000000E+000
3,6273211E-001	-1,330467215432972E-002	1,000000000000000E+000
3,4973437E-001	-1,194550416068293E-002	1,000000000000000E+000
3,3677909E-001	-1,090865704028232E-002	1,000000000000000E+000
3,2374975E-001	-1,015899134454708E-002	1,000000000000000E+000
3,1077194E-001	-9,547427571903966E-003	1,000000000000000E+000
2,9778165E-001	-9,038781759893005E-003	1,000000000000000E+000
2,8480938E-001	-8,606992662128960E-003	1,000000000000000E+000
2,7180314E-001	-8,238662212987843E-003	1,000000000000000E+000
2,5874168E-001	-7,887958554836642E-003	1,000000000000000E+000
2,4573335E-001	-7,617004727377179E-003	1,000000000000000E+000
2,3280463E-001	-7,372163979773749E-003	1,000000000000000E+000
2,1977398E-001	-7,118076980409654E-003	1,000000000000000E+000
2,0675500E-001	-6,907768905888220E-003	1,000000000000000E+000
1,9378170E-001	-6,697084814958953E-003	1,000000000000000E+000
1,8084165E-001	-6,504806757410310E-003	1,000000000000000E+000
1,6774799E-001	-6,327703321347883E-003	1,000000000000000E+000
1,5481079E-001	-6,151871520908667E-003	1,000000000000000E+000
1,4169371E-001	-5,936206471670452E-003	1,000000000000000E+000
1,2885991E-001	-5,778227209643105E-003	1,000000000000000E+000
1,1580165E-001	-5,565987746427942E-003	1,000000000000000E+000
1,0286976E-001	-5,372149411760753E-003	1,000000000000000E+000
8,9777507E-002	-5,188545809174133E-003	1,000000000000000E+000
7,6832868E-002	-5,014190861823038E-003	1,000000000000000E+000
6,3744873E-002	-4,842463312097721E-003	1,000000000000000E+000
5,0747138E-002	-4,693592880827969E-003	1,000000000000000E+000
3,7758958E-002	-4,531416983578326E-003	1,000000000000000E+000
2,4590269E-002	-4,271961350022696E-003	1,000000000000000E+000
1,1584039E-002	-4,154441840978358E-003	1,000000000000000E+000
-1,7561640E-004	-4,025900604057261E-003	1,000000000000000E+000