Folder: nife-mo-alkaline-oer-data/fig_4_nife_ceo2/Activity_2_CV (part 3)

File: Ni75Fe25_Activity_2_CV_2_02_CV_C01.txt
Ewe/V	<I>/mA	cycle number
9,8556193E-005	-4,921836853027344E-001	1,000000000000000E+000
1,2686430E-002	-4,007844888666412E-002	1,000000000000000E+000
2,5641693E-002	-2,252162780925257E-002	1,000000000000000E+000
3,8665976E-002	-1,510778008279118E-002	1,000000000000000E+000
5,1686008E-002	-1,097521332351017E-002	1,000000000000000E+000
6,4637028E-002	-8,299351387191040E-003	1,000000000000000E+000
7,7652812E-002	-6,504375478062697E-003	1,000000000000000E+000
9,0685591E-002	-5,110698355903789E-003	1,000000000000000E+000
1,0381287E-001	-4,169044026474319E-003	1,000000000000000E+000
1,1685944E-001	-3,413620834626083E-003	1,000000000000000E+000
1,2986037E-001	-2,854547829333184E-003	1,000000000000000E+000
1,4289632E-001	-2,375769371575596E-003	1,000000000000000E+000
1,5584098E-001	-1,985776984861284E-003	1,000000000000000E+000
1,6878775E-001	-1,620125524978058E-003	1,000000000000000E+000
1,8184920E-001	-1,303202316590042E-003	1,000000000000000E+000
1,9481932E-001	-1,029636484411819E-003	1,000000000000000E+000
2,0784996E-001	-7,675990598649037E-004	1,000000000000000E+000
2,2078609E-001	-5,804068058724708E-004	1,000000000000000E+000
2,3385818E-001	-3,942822824112111E-004	1,000000000000000E+000
2,4690580E-001	-2,481842834699990E-004	1,000000000000000E+000
2,5987384E-001	-1,225996484855796E-004	1,000000000000000E+000
2,7284181E-001	-4,143323266892520E-006	1,000000000000000E+000
2,8582045E-001	7,150463506090286E-005	1,000000000000000E+000
2,9879481E-001	1,307114154281030E-004	1,000000000000000E+000
3,1180319E-001	1,664799744571454E-004	1,000000000000000E+000
3,2479775E-001	1,675598147519862E-004	1,000000000000000E+000
3,3782414E-001	1,643537535393770E-004	1,000000000000000E+000
3,5081232E-001	1,298784314217232E-004	1,000000000000000E+000
3,6374497E-001	1,294618258222090E-004	1,000000000000000E+000
3,7671223E-001	1,372246447363993E-004	1,000000000000000E+000
3,8975668E-001	1,869958698134037E-004	1,000000000000000E+000
4,0278840E-001	2,697040054995532E-004	1,000000000000000E+000
4,1578507E-001	4,159846085009826E-004	1,000000000000000E+000
4,2878917E-001	6,147602859926053E-004	1,000000000000000E+000
4,4181347E-001	9,322479783883120E-004	1,000000000000000E+000
4,5483029E-001	1,335151875809352E-003	1,000000000000000E+000
4,6777391E-001	1,947752656884991E-003	1,000000000000000E+000
4,8080561E-001	3,575264590939126E-003	1,000000000000000E+000
4,9380869E-001	6,877246442213422E-003	1,000000000000000E+000
5,0691152E-001	1,142665801289733E-002	1,000000000000000E+000
5,1988375E-001	1,867792376289636E-002	1,000000000000000E+000
5,3286767E-001	3,027009590615484E-002	1,000000000000000E+000
5,4592276E-001	3,992643875076257E-002	1,000000000000000E+000
5,5892485E-001	4,823947072189760E-002	1,000000000000000E+000
5,7189810E-001	6,652598705484847E-002	1,000000000000000E+000
5,8485442E-001	1,014324686713857E-001	1,000000000000000E+000
5,9799653E-001	1,577629457194099E-001	1,000000000000000E+000
6,1100382E-001	2,352558920569630E-001	1,000000000000000E+000
6,2398112E-001	3,401665119729962E-001	1,000000000000000E+000
6,3699615E-001	4,678149232450796E-001	1,000000000000000E+000
6,5003419E-001	6,256316915796493E-001	1,000000000000000E+000
6,6303086E-001	8,127161102821336E-001	1,000000000000000E+000
6,7598826E-001	1,032059777198597E+000	1,000000000000000E+000
6,8911988E-001	1,278065213634938E+000	1,000000000000000E+000
7,0212179E-001	1,559229318483339E+000	1,000000000000000E+000
7,1510464E-001	1,865027615340118E+000	1,000000000000000E+000
7,2811931E-001	2,202824512390990E+000	1,000000000000000E+000
7,4107248E-001	2,557263864326787E+000	1,000000000000000E+000
7,5405645E-001	2,937835290852405E+000	1,000000000000000E+000
7,6700848E-001	3,333179566933183E+000	1,000000000000000E+000
7,8005195E-001	3,746728142068765E+000	1,000000000000000E+000
7,9308039E-001	4,165852483437980E+000	1,000000000000000E+000
8,0604631E-001	4,606912544727869E+000	1,000000000000000E+000
8,1908303E-001	5,057435153816506E+000	1,000000000000000E+000
8,3208203E-001	5,519260805412763E+000	1,000000000000000E+000
8,4509587E-001	5,992651244781740E+000	1,000000000000000E+000
8,5812116E-001	6,477186706331036E+000	1,000000000000000E+000
8,7109655E-001	6,966394527226086E+000	1,000000000000000E+000
8,8413990E-001	7,474705017973832E+000	1,000000000000000E+000
8,9714199E-001	7,981517489737627E+000	1,000000000000000E+000
9,1011840E-001	8,518007204308255E+000	1,000000000000000E+000
9,2304927E-001	9,033047982962472E+000	1,000000000000000E+000
9,3606508E-001	9,588572264123130E+000	1,000000000000000E+000
9,4905937E-001	1,013536368222468E+001	1,000000000000000E+000
9,6210515E-001	1,065163249831623E+001	1,000000000000000E+000
9,7512728E-001	1,120460844344029E+001	1,000000000000000E+000
9,8816329E-001	1,174731095361597E+001	1,000000000000000E+000
9,9982983E-001	1,215554879261896E+001	1,000000000000000E+000
9,8721826E-001	1,138872563920052E+001	1,000000000000000E+000
9,7426724E-001	1,067650036992460E+001	1,000000000000000E+000
9,6127689E-001	1,000669015954142E+001	1,000000000000000E+000
9,4824636E-001	9,403298342309018E+000	1,000000000000000E+000
9,3524003E-001	8,807314157080469E+000	1,000000000000000E+000
9,2223370E-001	8,264147873706030E+000	1,000000000000000E+000
9,0920460E-001	7,722484380650087E+000	1,000000000000000E+000
8,9623308E-001	7,202720319467900E+000	1,000000000000000E+000
8,8329375E-001	6,717126093348696E+000	1,000000000000000E+000
8,7025458E-001	6,242401836410437E+000	1,000000000000000E+000
8,5721755E-001	5,774895137670089E+000	1,000000000000000E+000
8,4418106E-001	5,328104519719160E+000	1,000000000000000E+000
8,3125502E-001	4,916328053118946E+000	1,000000000000000E+000
8,1819719E-001	4,506990443170068E+000	1,000000000000000E+000
8,0518407E-001	4,105574125605640E+000	1,000000000000000E+000
7,9219592E-001	3,708862526312716E+000	1,000000000000000E+000
7,7919549E-001	3,341075889330182E+000	1,000000000000000E+000
7,6619732E-001	2,973006546277713E+000	1,000000000000000E+000
7,5315285E-001	2,625314685847618E+000	1,000000000000000E+000
7,4016148E-001	2,300644636542753E+000	1,000000000000000E+000
7,2721261E-001	1,986303015141125E+000	1,000000000000000E+000
7,1421152E-001	1,692686338750040E+000	1,000000000000000E+000
7,0119160E-001	1,422731936493228E+000	1,000000000000000E+000
6,8810892E-001	1,175789695131742E+000	1,000000000000000E+000
6,7522591E-001	9,466030262072795E-001	1,000000000000000E+000
6,6219521E-001	7,478089833256210E-001	1,000000000000000E+000
6,4914572E-001	5,721377897031008E-001	1,000000000000000E+000
6,3589287E-001	4,236467613283175E-001	1,000000000000000E+000
6,2296313E-001	3,021608510280611E-001	1,000000000000000E+000
6,0998452E-001	2,061780621097036E-001	1,000000000000000E+000
5,9699845E-001	1,335760201084639E-001	1,000000000000000E+000
5,8399850E-001	8,173080475356176E-002	1,000000000000000E+000
5,7103795E-001	4,727245827734478E-002	1,000000000000000E+000
5,5782366E-001	2,605731437899281E-002	1,000000000000000E+000
5,4486412E-001	1,423352587727371E-002	1,000000000000000E+000
5,3179729E-001	7,828708680540867E-003	1,000000000000000E+000
5,1865715E-001	4,064301491150622E-003	1,000000000000000E+000
5,0575519E-001	2,057959125811488E-003	1,000000000000000E+000
4,9268100E-001	6,529963991980005E-004	1,000000000000000E+000
4,7967476E-001	-6,444377908164396E-004	1,000000000000000E+000
4,6670571E-001	-2,412938592913763E-003	1,000000000000000E+000
4,5370007E-001	-6,162680532355830E-003	1,000000000000000E+000
4,4061360E-001	-1,337216084832518E-002	1,000000000000000E+000
4,2759570E-001	-1,560175904590753E-002	1,000000000000000E+000
4,1463727E-001	-1,148226627060520E-002	1,000000000000000E+000
4,0161398E-001	-8,389121203687566E-003	1,000000000000000E+000
3,8861167E-001	-7,385315606675297E-003	1,000000000000000E+000
3,7566635E-001	-7,333302937047849E-003	1,000000000000000E+000
3,6260173E-001	-7,632712653812768E-003	1,000000000000000E+000
3,4962839E-001	-8,097767779804754E-003	1,000000000000000E+000
3,3662534E-001	-8,558015099712352E-003	1,000000000000000E+000
3,2358640E-001	-8,986716165503818E-003	1,000000000000000E+000
3,1058526E-001	-9,371801995267826E-003	1,000000000000000E+000
2,9762259E-001	-9,659223968998362E-003	1,000000000000000E+000
2,8461531E-001	-9,850584948329851E-003	1,000000000000000E+000
2,7155912E-001	-9,884232814149740E-003	1,000000000000000E+000
2,5858799E-001	-9,707126067709376E-003	1,000000000000000E+000
2,4559450E-001	-9,364060975667707E-003	1,000000000000000E+000
2,3266576E-001	-8,952755494269743E-003	1,000000000000000E+000
2,1962662E-001	-8,411212892457942E-003	1,000000000000000E+000
2,0657896E-001	-7,784812703193823E-003	1,000000000000000E+000
1,9362652E-001	-7,162549800380086E-003	1,000000000000000E+000
1,8064083E-001	-6,516226818901266E-003	1,000000000000000E+000
1,6759320E-001	-5,905670290332413E-003	1,000000000000000E+000
1,5464962E-001	-5,368103788337537E-003	1,000000000000000E+000
1,4162640E-001	-4,846255448450174E-003	1,000000000000000E+000
1,2867962E-001	-4,384700254581958E-003	1,000000000000000E+000
1,1546846E-001	-3,425407064553292E-003	1,000000000000000E+000
1,0245586E-001	-3,075396637601230E-003	1,000000000000000E+000
8,9489982E-002	-2,723270855917136E-003	1,000000000000000E+000
7,6518789E-002	-2,487769180736163E-003	1,000000000000000E+000
6,3482828E-002	-2,290249352762189E-003	1,000000000000000E+000
5,0497830E-002	-2,102818086229518E-003	1,000000000000000E+000
3,7478857E-002	-1,993166541457236E-003	1,000000000000000E+000
2,4489619E-002	-1,893119962329375E-003	1,000000000000000E+000
1,1440916E-002	-1,890977200302443E-003	1,000000000000000E+000
-2,8369905E-004	-1,892335925196461E-003	1,000000000000000E+000

File: Ni90Fe10_Activity_2_CV_2_02_CV_C01.txt
Ewe/V	<I>/mA	cycle number
-1,2680044E-005	-1,947818398475647E-001	1,000000000000000E+000
1,2747209E-002	-1,550368314448960E-002	1,000000000000000E+000
2,5782108E-002	-9,024720411835316E-003	1,000000000000000E+000
3,8749050E-002	-6,217686180856871E-003	1,000000000000000E+000
5,1834229E-002	-4,693772319813591E-003	1,000000000000000E+000
6,4854950E-002	-3,699604396775885E-003	1,000000000000000E+000
7,7828266E-002	-3,002047863090149E-003	1,000000000000000E+000
9,0850428E-002	-2,471929641202664E-003	1,000000000000000E+000
1,0380314E-001	-2,059135291982456E-003	1,000000000000000E+000
1,1681191E-001	-1,719332031642071E-003	1,000000000000000E+000
1,2980117E-001	-1,459670910211028E-003	1,000000000000000E+000
1,4282440E-001	-1,233427900176662E-003	1,000000000000000E+000
1,5581045E-001	-1,031853827223385E-003	1,000000000000000E+000
1,6886021E-001	-8,606916246100930E-004	1,000000000000000E+000
1,8178359E-001	-6,992487159758649E-004	1,000000000000000E+000
1,9483125E-001	-5,571044176760388E-004	1,000000000000000E+000
2,0779924E-001	-4,216675282673250E-004	1,000000000000000E+000
2,2075877E-001	-3,035492867957974E-004	1,000000000000000E+000
2,3383720E-001	-2,113006271298357E-004	1,000000000000000E+000
2,4682856E-001	-1,605505275433963E-004	1,000000000000000E+000
2,5978595E-001	-1,105867903272643E-004	1,000000000000000E+000
2,7283254E-001	-8,766007844297980E-005	1,000000000000000E+000
2,8581434E-001	-6,147384747654710E-005	1,000000000000000E+000
2,9883331E-001	-1,648110073120083E-005	1,000000000000000E+000
3,1180662E-001	3,876418167141828E-005	1,000000000000000E+000
3,2476297E-001	1,060765979417747E-004	1,000000000000000E+000
3,3778936E-001	2,012680114001617E-004	1,000000000000000E+000
3,5080090E-001	2,872814323788327E-004	1,000000000000000E+000
3,6381879E-001	3,790787612144285E-004	1,000000000000000E+000
3,7678683E-001	4,484177522402601E-004	1,000000000000000E+000
3,8983446E-001	5,349553445250935E-004	1,000000000000000E+000
4,0281838E-001	6,317002298436483E-004	1,000000000000000E+000
4,1577259E-001	7,589483592464752E-004	1,000000000000000E+000
4,2878732E-001	9,694714192304346E-004	1,000000000000000E+000
4,4178233E-001	1,430864401712251E-003	1,000000000000000E+000
4,5471692E-001	2,359086625455392E-003	1,000000000000000E+000
4,6773061E-001	4,232112376683014E-003	1,000000000000000E+000
4,8077828E-001	8,374510205043539E-003	1,000000000000000E+000
4,9391669E-001	2,083666231305388E-002	1,000000000000000E+000
5,0692880E-001	4,707438666204533E-002	1,000000000000000E+000
5,1991904E-001	8,639520621972596E-002	1,000000000000000E+000
5,3297627E-001	1,257592339338967E-001	1,000000000000000E+000
5,4603130E-001	1,450103088187022E-001	1,000000000000000E+000
5,5899084E-001	1,533394001198345E-001	1,000000000000000E+000
5,7203102E-001	1,919162972733091E-001	1,000000000000000E+000
5,8503944E-001	2,794923883463660E-001	1,000000000000000E+000
5,9805632E-001	4,282124485279910E-001	1,000000000000000E+000
6,1106461E-001	6,502596616930827E-001	1,000000000000000E+000
6,2400609E-001	9,327154983755790E-001	1,000000000000000E+000
6,3712484E-001	1,382619624581535E+000	1,000000000000000E+000
6,5010136E-001	1,927091646170801E+000	1,000000000000000E+000
6,6313291E-001	2,600395143708187E+000	1,000000000000000E+000
6,7612129E-001	3,388086162524438E+000	1,000000000000000E+000
6,8909138E-001	4,281065966807262E+000	1,000000000000000E+000
7,0214754E-001	5,263881573770291E+000	1,000000000000000E+000
7,1509230E-001	6,324199525953475E+000	1,000000000000000E+000
7,2812814E-001	7,446246942087072E+000	1,000000000000000E+000
7,4111629E-001	8,633597265700885E+000	1,000000000000000E+000
7,5417244E-001	9,854317032696201E+000	1,000000000000000E+000
7,6720524E-001	1,111195521925049E+001	1,000000000000000E+000
7,8023374E-001	1,240590905967485E+001	1,000000000000000E+000
7,9322076E-001	1,373206359148020E+001	1,000000000000000E+000
8,0621219E-001	1,508297391989339E+001	1,000000000000000E+000
8,1923968E-001	1,646494691117826E+001	1,000000000000000E+000
8,3218688E-001	1,725919933869366E+001	1,000000000000000E+000
8,4521067E-001	1,871863621459795E+001	1,000000000000000E+000
8,5819256E-001	2,002693001780651E+001	1,000000000000000E+000
8,7118500E-001	2,204292276697632E+001	1,000000000000000E+000
8,8421750E-001	2,349794072657858E+001	1,000000000000000E+000
8,9726973E-001	2,493944567414907E+001	1,000000000000000E+000
9,1026741E-001	2,640421761109428E+001	1,000000000000000E+000
9,2321205E-001	2,786624209788920E+001	1,000000000000000E+000
9,3618113E-001	2,928062144726067E+001	1,000000000000000E+000
9,4920963E-001	3,074100625812326E+001	1,000000000000000E+000
9,6220523E-001	3,224720080855752E+001	1,000000000000000E+000
9,7518915E-001	3,370975954002807E+001	1,000000000000000E+000
9,8820174E-001	3,520101571461512E+001	1,000000000000000E+000
9,9981415E-001	3,649480378394031E+001	1,000000000000000E+000
9,8740429E-001	3,497762310504910E+001	1,000000000000000E+000
9,7445863E-001	3,333659013139419E+001	1,000000000000000E+000
9,6136534E-001	3,178470477765927E+001	1,000000000000000E+000
9,4834566E-001	3,024547468736637E+001	1,000000000000000E+000
9,3537623E-001	2,872630756944739E+001	1,000000000000000E+000
9,2239648E-001	2,720207276501060E+001	1,000000000000000E+000
9,0937120E-001	2,567943307520852E+001	1,000000000000000E+000
8,9644247E-001	2,420322334225756E+001	1,000000000000000E+000
8,8340759E-001	2,275236437407210E+001	1,000000000000000E+000
8,7046295E-001	2,130330595502505E+001	1,000000000000000E+000
8,5741633E-001	1,986185635339104E+001	1,000000000000000E+000
8,4441751E-001	1,844610442407009E+001	1,000000000000000E+000
8,3140498E-001	1,706422790188913E+001	1,000000000000000E+000
8,1840408E-001	1,571962306018327E+001	1,000000000000000E+000
8,0535948E-001	1,437938780592687E+001	1,000000000000000E+000
7,9239684E-001	1,306773297654259E+001	1,000000000000000E+000
7,7937418E-001	1,179309807716209E+001	1,000000000000000E+000
7,6642054E-001	1,054311764179447E+001	1,000000000000000E+000
7,5343126E-001	9,201192229445581E+000	1,000000000000000E+000
7,4040169E-001	8,037233312113777E+000	1,000000000000000E+000
7,2743154E-001	7,040837120171858E+000	1,000000000000000E+000
7,1440524E-001	5,984359089310459E+000	1,000000000000000E+000
7,0144773E-001	4,979865476320093E+000	1,000000000000000E+000
6,8816870E-001	4,046723926790463E+000	1,000000000000000E+000
6,7525482E-001	3,204291673102617E+000	1,000000000000000E+000
6,6219121E-001	2,462231672033166E+000	1,000000000000000E+000
6,4924657E-001	1,826229543220295E+000	1,000000000000000E+000
6,3625520E-001	1,284912126616083E+000	1,000000000000000E+000
6,2320870E-001	8,764009698211748E-001	1,000000000000000E+000
6,1024141E-001	5,883385423773069E-001	1,000000000000000E+000
5,9713459E-001	3,826393599742337E-001	1,000000000000000E+000
5,8409971E-001	2,372871989008383E-001	1,000000000000000E+000
5,7117838E-001	1,413793235366774E-001	1,000000000000000E+000
5,5811572E-001	8,089449916540525E-002	1,000000000000000E+000
5,4505092E-001	4,437359992820222E-002	1,000000000000000E+000
5,3193456E-001	2,334586087423707E-002	1,000000000000000E+000
5,1888162E-001	1,187007818246982E-002	1,000000000000000E+000
5,0593913E-001	5,609967374222244E-003	1,000000000000000E+000
4,9282670E-001	1,622147230216153E-003	1,000000000000000E+000
4,7976530E-001	-7,289999166398041E-004	1,000000000000000E+000
4,6679941E-001	-3,137120847330754E-003	1,000000000000000E+000
4,5383137E-001	-7,874021060340269E-003	1,000000000000000E+000
4,4072324E-001	-1,719062274470795E-002	1,000000000000000E+000
4,2771167E-001	-2,054634683012078E-002	1,000000000000000E+000
4,1469163E-001	-1,828634802330192E-002	1,000000000000000E+000
4,0174910E-001	-1,535520472462437E-002	1,000000000000000E+000
3,8871065E-001	-1,110807107002640E-002	1,000000000000000E+000
3,7570485E-001	-8,378563584538631E-003	1,000000000000000E+000
3,6271456E-001	-6,882310066875841E-003	1,000000000000000E+000
3,4972209E-001	-5,950251903966725E-003	1,000000000000000E+000
3,3674178E-001	-5,360955441815085E-003	1,000000000000000E+000
3,2375526E-001	-4,909664789134738E-003	1,000000000000000E+000
3,1058341E-001	-4,348346904327220E-003	1,000000000000000E+000
2,9751137E-001	-3,999570937165430E-003	1,000000000000000E+000
2,8455606E-001	-3,683192495076107E-003	1,000000000000000E+000
2,7161354E-001	-3,432724904196389E-003	1,000000000000000E+000
2,5861898E-001	-3,244874424934908E-003	1,000000000000000E+000
2,4558519E-001	-3,056335017980488E-003	1,000000000000000E+000
2,3259807E-001	-2,896845052429247E-003	1,000000000000000E+000
2,1952811E-001	-2,754379049969205E-003	1,000000000000000E+000
2,0666309E-001	-2,622527272172964E-003	1,000000000000000E+000
1,9357832E-001	-2,523285287510640E-003	1,000000000000000E+000
1,8060924E-001	-2,435244098716198E-003	1,000000000000000E+000
1,6754650E-001	-2,322275489677901E-003	1,000000000000000E+000
1,5459891E-001	-2,194883822621327E-003	1,000000000000000E+000
1,4160222E-001	-2,073557648341579E-003	1,000000000000000E+000
1,2863635E-001	-1,961186292471440E-003	1,000000000000000E+000
1,1558383E-001	-1,860831279656129E-003	1,000000000000000E+000
1,0262175E-001	-1,766807475155521E-003	1,000000000000000E+000
8,9664377E-002	-1,676527770983061E-003	1,000000000000000E+000
7,6603994E-002	-1,594094168644936E-003	1,000000000000000E+000
6,3607313E-002	-1,522985558902151E-003	1,000000000000000E+000
5,0541624E-002	-1,475736967735998E-003	1,000000000000000E+000
3,7587423E-002	-1,446449630987480E-003	1,000000000000000E+000
2,4587560E-002	-1,430744698855936E-003	1,000000000000000E+000
1,1618494E-002	-1,417609260918358E-003	1,000000000000000E+000
6,4327178E-006	-1,422422990549871E-003	1,000000000000000E+000