Folder: nife-mo-alkaline-oer-data/fig_4_nife_ceo2/Activity_1_CV

Note: README.md
# Raw Data and Plot Scripts for the Manuscript

This repository contains the raw data and plotting scripts for the figures in the following manuscript:

**Varghese, N. K., Mkrtchian, E., Singh, A., Savio, L., Boccia, M., Marzocchi, V., & Comite, A., NiFe on CeO2, TiO2 and ZrO2 Supports as Efficient Oxygen Evolution Reaction Catalysts in Alkaline Media. ACS Appl. Energy Mater. 2025; doi:10.1021/acsaem.4c03268**

Each folder corresponds to a specific figure in the paper, with the folder name matching the figure number/details. Inside each folder, you will find the raw data files and the Python scripts used to generate the plots for that figure.

The **XPS plots** were generated using a commercial software. The folder `fig_3_and_si_xps` contains only the raw XPS data.

If you use this data, please cite the above article.

## License

This project is licensed under the **GNU General Public License (GPL)**, which allows you to freely use, modify and distribute the code, provided that any derivative works are also licensed under GPL.

File: Fe100_Activity_1_CV_1_02_CV_C01.txt
Ewe/V	<I>/mA	cycle number
1,9416776E-004	-4,518190920352936E-001	1,000000000000000E+000
1,2974231E-002	-8,044890775157826E-003	1,000000000000000E+000
2,6123805E-002	-4,047801331714618E-003	1,000000000000000E+000
3,9170388E-002	-2,583370236000825E-003	1,000000000000000E+000
5,2196786E-002	-1,802744879014453E-003	1,000000000000000E+000
6,5139316E-002	-1,299280676977681E-003	1,000000000000000E+000
7,8148730E-002	-9,548675470321937E-004	1,000000000000000E+000
9,1222920E-002	-7,050662896954420E-004	1,000000000000000E+000
1,0421004E-001	-5,093805518512073E-004	1,000000000000000E+000
1,1719595E-001	-3,518791176083686E-004	1,000000000000000E+000
1,3015559E-001	-2,294224278514218E-004	1,000000000000000E+000
1,4320537E-001	-1,250997466778292E-004	1,000000000000000E+000
1,5617231E-001	-4,415001953806435E-005	1,000000000000000E+000
1,6918704E-001	2,714431201385800E-005	1,000000000000000E+000
1,8214124E-001	6,979402725471392E-005	1,000000000000000E+000
1,9517297E-001	1,051803296598778E-004	1,000000000000000E+000
2,0822378E-001	1,476702715223351E-004	1,000000000000000E+000
2,2113870E-001	1,746539239431146E-004	1,000000000000000E+000
2,3416509E-001	2,093926671741684E-004	1,000000000000000E+000
2,4714054E-001	2,210658094296877E-004	1,000000000000000E+000
2,6016590E-001	2,467549353155333E-004	1,000000000000000E+000
2,7317739E-001	2,634163564665662E-004	1,000000000000000E+000
2,8614831E-001	2,860014302151458E-004	1,000000000000000E+000
2,9913571E-001	3,152427356771829E-004	1,000000000000000E+000
3,1219330E-001	3,441547351702365E-004	1,000000000000000E+000
3,2518005E-001	3,715409719835918E-004	1,000000000000000E+000
3,3813214E-001	4,017702710439018E-004	1,000000000000000E+000
3,5115430E-001	4,396533842485374E-004	1,000000000000000E+000
3,6411807E-001	4,811216501929299E-004	1,000000000000000E+000
3,7714446E-001	5,151852185829274E-004	1,000000000000000E+000
3,9012408E-001	5,614489106399532E-004	1,000000000000000E+000
4,0311867E-001	6,188682697677006E-004	1,000000000000000E+000
4,1615462E-001	6,767489277635806E-004	1,000000000000000E+000
4,2911944E-001	7,470142861790985E-004	1,000000000000000E+000
4,4218308E-001	8,604051978767530E-004	1,000000000000000E+000
4,5512611E-001	1,045329255607881E-003	1,000000000000000E+000
4,6817955E-001	1,359905738172938E-003	1,000000000000000E+000
4,8116577E-001	1,987398820865375E-003	1,000000000000000E+000
4,9414107E-001	3,815232359610479E-003	1,000000000000000E+000
5,0712287E-001	9,713593112381902E-003	1,000000000000000E+000
5,2027351E-001	2,014125273652717E-002	1,000000000000000E+000
5,3326386E-001	3,031571711996417E-002	1,000000000000000E+000
5,4625732E-001	3,949612321816770E-002	1,000000000000000E+000
5,5927098E-001	5,562591182369987E-002	1,000000000000000E+000
5,7227510E-001	9,427291537685689E-002	1,000000000000000E+000
5,8537793E-001	1,621201828812708E-001	1,000000000000000E+000
5,9838313E-001	2,613474113545695E-001	1,000000000000000E+000
6,1134475E-001	3,941310281842068E-001	1,000000000000000E+000
6,2436491E-001	5,642890325779296E-001	1,000000000000000E+000
6,3743156E-001	7,741994170721211E-001	1,000000000000000E+000
6,5032226E-001	1,017963278103402E+000	1,000000000000000E+000
6,6349500E-001	1,302080037929713E+000	1,000000000000000E+000
6,7647040E-001	1,612724916633569E+000	1,000000000000000E+000
6,8940651E-001	1,952062622371580E+000	1,000000000000000E+000
7,0239151E-001	2,299834175647796E+000	1,000000000000000E+000
7,1546566E-001	2,690926342594388E+000	1,000000000000000E+000
7,2839648E-001	3,091220468417866E+000	1,000000000000000E+000
7,4144310E-001	3,494925322209617E+000	1,000000000000000E+000
7,5439727E-001	3,914163992653627E+000	1,000000000000000E+000
7,6740783E-001	4,352383679847584E+000	1,000000000000000E+000
7,8040022E-001	4,808473131587707E+000	1,000000000000000E+000
7,9346877E-001	5,261159533456457E+000	1,000000000000000E+000
8,0644238E-001	5,709646383752343E+000	1,000000000000000E+000
8,1945574E-001	6,185779989080991E+000	1,000000000000000E+000
8,3243996E-001	6,652184788872603E+000	1,000000000000000E+000
8,4539950E-001	7,132665873452368E+000	1,000000000000000E+000
8,5842800E-001	7,608323357543213E+000	1,000000000000000E+000
8,7144601E-001	8,075211283233415E+000	1,000000000000000E+000
8,8440341E-001	8,553506744016047E+000	1,000000000000000E+000
8,9741600E-001	9,044801066792246E+000	1,000000000000000E+000
9,1041261E-001	9,535255310554362E+000	1,000000000000000E+000
9,2346454E-001	1,000302422141276E+001	1,000000000000000E+000
9,3639529E-001	1,049323341878903E+001	1,000000000000000E+000
9,4959372E-001	1,098607547050700E+001	1,000000000000000E+000
9,6261603E-001	1,146245103520332E+001	1,000000000000000E+000
9,7563279E-001	1,192908620962749E+001	1,000000000000000E+000
9,8865187E-001	1,241305184486393E+001	1,000000000000000E+000
9,9924439E-001	1,277421897406475E+001	1,000000000000000E+000
9,8630828E-001	1,208012153948241E+001	1,000000000000000E+000
9,7327232E-001	1,144251139140995E+001	1,000000000000000E+000
9,6032035E-001	1,085126947457823E+001	1,000000000000000E+000
9,4729495E-001	1,028387422227803E+001	1,000000000000000E+000
9,3430889E-001	9,729471456572043E+000	1,000000000000000E+000
9,2126131E-001	9,193441281470683E+000	1,000000000000000E+000
9,0831554E-001	8,676635035649468E+000	1,000000000000000E+000
8,9531362E-001	8,190154819283933E+000	1,000000000000000E+000
8,8221186E-001	7,669164420458202E+000	1,000000000000000E+000
8,6926609E-001	7,219093172187996E+000	1,000000000000000E+000
8,5631931E-001	6,733480632643051E+000	1,000000000000000E+000
8,4330672E-001	6,265070162798011E+000	1,000000000000000E+000
8,3034503E-001	5,823943695040796E+000	1,000000000000000E+000
8,1730270E-001	5,399051145800371E+000	1,000000000000000E+000
8,0430818E-001	4,963904230299988E+000	1,000000000000000E+000
7,9133701E-001	4,553351271382255E+000	1,000000000000000E+000
7,7810782E-001	4,146332587413227E+000	1,000000000000000E+000
7,6509625E-001	3,753066900534677E+000	1,000000000000000E+000
7,5220591E-001	3,366086560945604E+000	1,000000000000000E+000
7,3912412E-001	2,993609100614009E+000	1,000000000000000E+000
7,2610754E-001	2,646070719432666E+000	1,000000000000000E+000
7,1313930E-001	2,302099741691237E+000	1,000000000000000E+000
7,0012248E-001	1,982072646334728E+000	1,000000000000000E+000
6,8711299E-001	1,671511398269342E+000	1,000000000000000E+000
6,7412484E-001	1,389181737067883E+000	1,000000000000000E+000
6,6114944E-001	1,128752238237535E+000	1,000000000000000E+000
6,4812404E-001	8,942136134014653E-001	1,000000000000000E+000
6,3514966E-001	6,835474895055751E-001	1,000000000000000E+000
6,2209994E-001	5,034257200654269E-001	1,000000000000000E+000
6,0893548E-001	3,522914482762118E-001	1,000000000000000E+000
5,9588462E-001	2,342582329613510E-001	1,000000000000000E+000
5,8295918E-001	1,442424534395890E-001	1,000000000000000E+000
5,6992847E-001	8,199314165822413E-002	1,000000000000000E+000
5,5675972E-001	4,149629047579739E-002	1,000000000000000E+000
5,4371417E-001	1,880355783349624E-002	1,000000000000000E+000
5,3068352E-001	7,278924629059491E-003	1,000000000000000E+000
5,1758605E-001	1,772264457241626E-003	1,000000000000000E+000
5,0452775E-001	-5,521208689116281E-004	1,000000000000000E+000
4,9161077E-001	-1,752957954064731E-003	1,000000000000000E+000
4,7851419E-001	-2,728002172432945E-003	1,000000000000000E+000
4,6551120E-001	-4,247837625969239E-003	1,000000000000000E+000
4,5259520E-001	-8,869533227820511E-003	1,000000000000000E+000
4,3948114E-001	-1,844852037512838E-002	1,000000000000000E+000
4,2641714E-001	-2,075634199569998E-002	1,000000000000000E+000
4,1343918E-001	-1,038104752245753E-002	1,000000000000000E+000
4,0043971E-001	-5,300346167392223E-003	1,000000000000000E+000
3,8723597E-001	-3,487725846037515E-003	1,000000000000000E+000
3,7420213E-001	-2,599728804551824E-003	1,000000000000000E+000
3,6123309E-001	-2,116448185590092E-003	1,000000000000000E+000
3,4825447E-001	-1,827008693596871E-003	1,000000000000000E+000
3,3522379E-001	-1,634077800079056E-003	1,000000000000000E+000
3,2225582E-001	-1,479876176910158E-003	1,000000000000000E+000
3,0925700E-001	-1,365512765840661E-003	1,000000000000000E+000
2,9623166E-001	-1,278602013905856E-003	1,000000000000000E+000
2,8325728E-001	-1,199343011222125E-003	1,000000000000000E+000
2,7027261E-001	-1,155939205627479E-003	1,000000000000000E+000
2,5719386E-001	-1,111139228846706E-003	1,000000000000000E+000
2,4427640E-001	-1,077797610290183E-003	1,000000000000000E+000
2,3120898E-001	-1,050123938609044E-003	1,000000000000000E+000
2,1823779E-001	-1,031901937191531E-003	1,000000000000000E+000
2,0525813E-001	-1,015741723478924E-003	1,000000000000000E+000
1,9229543E-001	-1,007064722331948E-003	1,000000000000000E+000
1,7922972E-001	-1,009629809605417E-003	1,000000000000000E+000
1,6626172E-001	-1,012113749394029E-003	1,000000000000000E+000
1,5323214E-001	-1,026983116500964E-003	1,000000000000000E+000
1,4023228E-001	-1,032433674576446E-003	1,000000000000000E+000
1,2723240E-001	-1,039013171027290E-003	1,000000000000000E+000
1,1425804E-001	-1,034186580004220E-003	1,000000000000000E+000
1,0124437E-001	-1,033225703941666E-003	1,000000000000000E+000
8,8237084E-002	-1,034378927846663E-003	1,000000000000000E+000
7,5256333E-002	-1,040868452971866E-003	1,000000000000000E+000
6,2285144E-002	-1,038847691811427E-003	1,000000000000000E+000
4,9245995E-002	-1,045005427842874E-003	1,000000000000000E+000
3,6236577E-002	-1,044168935933853E-003	1,000000000000000E+000
2,3270698E-002	-1,036400216251592E-003	1,000000000000000E+000
1,0266591E-002	-1,034216967076017E-003	1,000000000000000E+000
-7,3410905E-005	-1,049884698837630E-003	1,000000000000000E+000

File: Ni10Fe90_Activity_1_CV1_02_CV_C01.txt
Ewe/V	<I>/mA	cycle number
4,0235359E-004	-4,740545749664307E-001	1,000000000000000E+000
1,2957311E-002	-8,888195459601581E-003	1,000000000000000E+000
2,6056452E-002	-4,484393125428466E-003	1,000000000000000E+000
3,9104622E-002	-2,869447731538875E-003	1,000000000000000E+000
5,2081123E-002	-1,984577672895924E-003	1,000000000000000E+000
6,5037444E-002	-1,418457668222628E-003	1,000000000000000E+000
7,8065977E-002	-1,034249072857691E-003	1,000000000000000E+000
9,1121048E-002	-7,565620839274749E-004	1,000000000000000E+000
1,0407420E-001	-5,527628910012537E-004	1,000000000000000E+000
1,1711227E-001	-3,960196009548753E-004	1,000000000000000E+000
1,3009089E-001	-2,927022303811500E-004	1,000000000000000E+000
1,4303660E-001	-2,215431615011005E-004	1,000000000000000E+000
1,5604179E-001	-1,559767231938698E-004	1,000000000000000E+000
1,6910535E-001	-1,070248457941164E-004	1,000000000000000E+000
1,8203513E-001	-5,284872577622957E-005	1,000000000000000E+000
1,9506578E-001	-4,562213092704806E-006	1,000000000000000E+000
2,0808366E-001	5,377381600719235E-005	1,000000000000000E+000
2,2110264E-001	1,165775713576353E-004	1,000000000000000E+000
2,3404518E-001	1,750907568956550E-004	1,000000000000000E+000
2,4700575E-001	2,377849526085697E-004	1,000000000000000E+000
2,6005232E-001	2,913484676780290E-004	1,000000000000000E+000
2,7305752E-001	3,411973973455129E-004	1,000000000000000E+000
2,8609025E-001	3,819347299902241E-004	1,000000000000000E+000
2,9908481E-001	4,105347783182386E-004	1,000000000000000E+000
3,1208685E-001	4,216161505032796E-004	1,000000000000000E+000
3,2504421E-001	4,143187749240697E-004	1,000000000000000E+000
3,3803344E-001	4,146489192611031E-004	1,000000000000000E+000
3,5106304E-001	4,202555368807617E-004	1,000000000000000E+000
3,6402568E-001	4,310134278560588E-004	1,000000000000000E+000
3,7696826E-001	4,570231782949226E-004	1,000000000000000E+000
3,9010295E-001	4,896235956274291E-004	1,000000000000000E+000
4,0299764E-001	5,385954878140862E-004	1,000000000000000E+000
4,1603154E-001	6,012284613622666E-004	1,000000000000000E+000
4,2904419E-001	7,014777837703896E-004	1,000000000000000E+000
4,4196117E-001	8,997189314066314E-004	1,000000000000000E+000
4,5498866E-001	1,201243499163123E-003	1,000000000000000E+000
4,6813506E-001	1,660018393196627E-003	1,000000000000000E+000
4,8103511E-001	2,690986017114486E-003	1,000000000000000E+000
4,9401584E-001	5,603993993022596E-003	1,000000000000000E+000
5,0708365E-001	1,393303321846051E-002	1,000000000000000E+000
5,2010262E-001	2,485413275143795E-002	1,000000000000000E+000
5,3314281E-001	3,021440234314038E-002	1,000000000000000E+000
5,4610121E-001	3,220647657443215E-002	1,000000000000000E+000
5,5909264E-001	3,483075614519157E-002	1,000000000000000E+000
5,7209033E-001	5,082680772918202E-002	1,000000000000000E+000
5,8514440E-001	8,680547030944626E-002	1,000000000000000E+000
5,9817183E-001	1,469329344721135E-001	1,000000000000000E+000
6,1116529E-001	2,352440759260834E-001	1,000000000000000E+000
6,2417257E-001	3,587664787482261E-001	1,000000000000000E+000
6,3720649E-001	5,178390110836553E-001	1,000000000000000E+000
6,5026158E-001	7,241120136716752E-001	1,000000000000000E+000
6,6324335E-001	9,696815540325621E-001	1,000000000000000E+000
6,7627084E-001	1,261715651234262E+000	1,000000000000000E+000
6,8929511E-001	1,586863676757623E+000	1,000000000000000E+000
7,0235127E-001	1,941302826378887E+000	1,000000000000000E+000
7,1535003E-001	2,337384194980396E+000	1,000000000000000E+000
7,2833717E-001	2,749643588856772E+000	1,000000000000000E+000
7,4131685E-001	3,189489439298789E+000	1,000000000000000E+000
7,5433791E-001	3,632634507454156E+000	1,000000000000000E+000
7,6728255E-001	4,108474325802597E+000	1,000000000000000E+000
7,8025907E-001	4,575838072466201E+000	1,000000000000000E+000
7,9330778E-001	5,072058737210423E+000	1,000000000000000E+000
8,0629164E-001	5,566711204156064E+000	1,000000000000000E+000
8,1927770E-001	6,073445337429620E+000	1,000000000000000E+000
8,3230841E-001	6,571802168476337E+000	1,000000000000000E+000
8,4530193E-001	7,086031343796371E+000	1,000000000000000E+000
8,5831130E-001	7,599360122296829E+000	1,000000000000000E+000
8,7128043E-001	8,114243809801110E+000	1,000000000000000E+000
8,8430047E-001	8,687385461160119E+000	1,000000000000000E+000
8,9726526E-001	9,226851709035003E+000	1,000000000000000E+000
9,1025138E-001	9,779174889161226E+000	1,000000000000000E+000
9,2330331E-001	1,034881273013389E+001	1,000000000000000E+000
9,3633968E-001	1,092224858281563E+001	1,000000000000000E+000
9,4940174E-001	1,151446291148801E+001	1,000000000000000E+000
9,6237290E-001	1,207802985233515E+001	1,000000000000000E+000
9,7544169E-001	1,266902018971993E+001	1,000000000000000E+000
9,8841608E-001	1,319188289672066E+001	1,000000000000000E+000
9,9926049E-001	1,363828792620686E+001	1,000000000000000E+000
9,8628503E-001	1,271088283753988E+001	1,000000000000000E+000
9,7329372E-001	1,192723030412816E+001	1,000000000000000E+000
9,6028638E-001	1,116694211500300E+001	1,000000000000000E+000
9,4724840E-001	1,047897259191586E+001	1,000000000000000E+000
9,3430257E-001	9,825696731100294E+000	1,000000000000000E+000
9,2126447E-001	9,201060294496763E+000	1,000000000000000E+000
9,0830600E-001	8,605995039820954E+000	1,000000000000000E+000
8,9522445E-001	8,007911395323760E+000	1,000000000000000E+000
8,8226068E-001	7,466183574156410E+000	1,000000000000000E+000
8,6928535E-001	6,899003221672388E+000	1,000000000000000E+000
8,5633528E-001	6,398820838149728E+000	1,000000000000000E+000
8,4325051E-001	5,921930930038684E+000	1,000000000000000E+000
8,3025479E-001	5,431310551439552E+000	1,000000000000000E+000
8,1728250E-001	4,984828384791662E+000	1,000000000000000E+000
8,0426145E-001	4,541286029681849E+000	1,000000000000000E+000
7,9121500E-001	4,114575721407959E+000	1,000000000000000E+000
7,7820879E-001	3,696552091782870E+000	1,000000000000000E+000
7,6520783E-001	3,293945452388456E+000	1,000000000000000E+000
7,5216758E-001	2,909743641492582E+000	1,000000000000000E+000
7,3919851E-001	2,540678524258052E+000	1,000000000000000E+000
7,2620189E-001	2,190139486524121E+000	1,000000000000000E+000
7,1321476E-001	1,850206135605333E+000	1,000000000000000E+000
7,0018834E-001	1,545571804587265E+000	1,000000000000000E+000
6,8719274E-001	1,259858605889032E+000	1,000000000000000E+000
6,7419821E-001	1,003545416261401E+000	1,000000000000000E+000
6,6122484E-001	7,753522402549873E-001	1,000000000000000E+000
6,4818776E-001	5,781732159297115E-001	1,000000000000000E+000
6,3512212E-001	4,154025506093060E-001	1,000000000000000E+000
6,2213290E-001	2,842605395555120E-001	1,000000000000000E+000
6,0910863E-001	1,859349920657252E-001	1,000000000000000E+000
5,9615123E-001	1,147055973651527E-001	1,000000000000000E+000
5,8315986E-001	6,600981067428924E-002	1,000000000000000E+000
5,7001871E-001	3,510810350291776E-002	1,000000000000000E+000
5,5697119E-001	1,726289498057459E-002	1,000000000000000E+000
5,4402751E-001	7,527390236835921E-003	1,000000000000000E+000
5,3075475E-001	2,265358406333268E-003	1,000000000000000E+000
5,1778996E-001	-2,852536529642246E-004	1,000000000000000E+000
5,0479752E-001	-1,730639509959780E-003	1,000000000000000E+000
4,9185821E-001	-2,843152308034620E-003	1,000000000000000E+000
4,7876492E-001	-4,096000019257390E-003	1,000000000000000E+000
4,6584040E-001	-6,373700767765028E-003	1,000000000000000E+000
4,5269930E-001	-1,180312033501651E-002	1,000000000000000E+000
4,3979082E-001	-1,906092863850919E-002	1,000000000000000E+000
4,2676017E-001	-2,111455389362368E-002	1,000000000000000E+000
4,1377196E-001	-1,082224780639536E-002	1,000000000000000E+000
4,0074235E-001	-5,090653772953979E-003	1,000000000000000E+000
3,8756630E-001	-3,298593996065753E-003	1,000000000000000E+000
3,7448892E-001	-2,550106231077539E-003	1,000000000000000E+000
3,6152300E-001	-2,139906939385726E-003	1,000000000000000E+000
3,4852743E-001	-1,878734100573061E-003	1,000000000000000E+000
3,3553922E-001	-1,682693669269552E-003	1,000000000000000E+000
3,2254577E-001	-1,540815389677257E-003	1,000000000000000E+000
3,0959579E-001	-1,438343613864530E-003	1,000000000000000E+000
2,9654920E-001	-1,352943573884548E-003	1,000000000000000E+000
2,8352171E-001	-1,295695888192539E-003	1,000000000000000E+000
2,7051973E-001	-1,243879453368769E-003	1,000000000000000E+000
2,5754008E-001	-1,218879158800200E-003	1,000000000000000E+000
2,4453384E-001	-1,199192477557401E-003	1,000000000000000E+000
2,3160937E-001	-1,189553142392802E-003	1,000000000000000E+000
2,1852882E-001	-1,177083580792514E-003	1,000000000000000E+000
2,0552361E-001	-1,165073486016294E-003	1,000000000000000E+000
1,9253439E-001	-1,152168763142829E-003	1,000000000000000E+000
1,7954409E-001	-1,140142582568969E-003	1,000000000000000E+000
1,6657503E-001	-1,117562517260313E-003	1,000000000000000E+000
1,5353483E-001	-1,090576668807994E-003	1,000000000000000E+000
1,4054665E-001	-1,055767649188481E-003	1,000000000000000E+000
1,2753828E-001	-1,028106454665795E-003	1,000000000000000E+000
1,1453205E-001	-9,987789802043383E-004	1,000000000000000E+000
1,0157680E-001	-9,677539612287390E-004	1,000000000000000E+000
8,8569492E-002	-9,525107918488662E-004	1,000000000000000E+000
7,5634405E-002	-9,428391716764586E-004	1,000000000000000E+000
6,2605873E-002	-9,338604604656846E-004	1,000000000000000E+000
4,9599644E-002	-9,355725875415284E-004	1,000000000000000E+000
3,6573246E-002	-9,524594488642246E-004	1,000000000000000E+000
2,3560645E-002	-9,844116711417595E-004	1,000000000000000E+000
1,0532114E-002	-1,029369991154285E-003	1,000000000000000E+000
-3,0481862E-004	-1,070635995882401E-003	1,000000000000000E+000