Folder: nife-mo-alkaline-oer-data/fig_4_nife_ceo2/Activity_1_CV (part 3)

File: Ni75Fe25_Activity_1_CV_1_02_CV_C01.txt
Ewe/V	<I>/mA	cycle number
5,5791446E-005	-1,208778381347656E+000	1,000000000000000E+000
1,2935665E-002	-9,921533764126733E-002	1,000000000000000E+000
2,5930217E-002	-5,275558099803201E-002	1,000000000000000E+000
3,9177485E-002	-3,463301437171993E-002	1,000000000000000E+000
5,2180525E-002	-2,524496521668784E-002	1,000000000000000E+000
6,5166578E-002	-1,942857662759628E-002	1,000000000000000E+000
7,8166336E-002	-1,552540213667775E-002	1,000000000000000E+000
9,1139756E-002	-1,269181972620859E-002	1,000000000000000E+000
1,0419271E-001	-1,058736791736034E-002	1,000000000000000E+000
1,1715115E-001	-8,937612838334108E-003	1,000000000000000E+000
1,3019349E-001	-7,618202002272360E-003	1,000000000000000E+000
1,4316574E-001	-6,527251681833476E-003	1,000000000000000E+000
1,5615073E-001	-5,636419686181244E-003	1,000000000000000E+000
1,6918352E-001	-4,856573054380871E-003	1,000000000000000E+000
1,8225345E-001	-4,257865769623892E-003	1,000000000000000E+000
1,9523951E-001	-3,696535266754997E-003	1,000000000000000E+000
2,0817885E-001	-3,209312023254973E-003	1,000000000000000E+000
2,2120965E-001	-2,777942763432448E-003	1,000000000000000E+000
2,3422319E-001	-2,384747641634009E-003	1,000000000000000E+000
2,4726762E-001	-2,052493188968411E-003	1,000000000000000E+000
2,6019421E-001	-1,740349116529253E-003	1,000000000000000E+000
2,7323228E-001	-1,469642145251922E-003	1,000000000000000E+000
2,8628099E-001	-1,216250381242011E-003	1,000000000000000E+000
2,9921290E-001	-9,781303939201957E-004	1,000000000000000E+000
3,1221065E-001	-7,672456804089251E-004	1,000000000000000E+000
3,2519776E-001	-5,747965788362129E-004	1,000000000000000E+000
3,3825389E-001	-3,995951862682119E-004	1,000000000000000E+000
3,5125378E-001	-2,398756946016640E-004	1,000000000000000E+000
3,6424831E-001	-9,794052535343082E-005	1,000000000000000E+000
3,7721735E-001	4,886919922409094E-005	1,000000000000000E+000
3,9022678E-001	1,845170120561334E-004	1,000000000000000E+000
4,0320736E-001	3,384523408088633E-004	1,000000000000000E+000
4,1624561E-001	5,013641837901244E-004	1,000000000000000E+000
4,2922637E-001	6,841504083795313E-004	1,000000000000000E+000
4,4218376E-001	9,116961610287824E-004	1,000000000000000E+000
4,5523879E-001	1,240809716366375E-003	1,000000000000000E+000
4,6822700E-001	1,973075980147402E-003	1,000000000000000E+000
4,8120672E-001	4,094261652809805E-003	1,000000000000000E+000
4,9427131E-001	8,365672067519958E-003	1,000000000000000E+000
5,0735086E-001	1,554628382748438E-002	1,000000000000000E+000
5,2034533E-001	2,711854289684981E-002	1,000000000000000E+000
5,3326344E-001	4,251429483837241E-002	1,000000000000000E+000
5,4638141E-001	5,335946210565323E-002	1,000000000000000E+000
5,5929500E-001	6,061454350762330E-002	1,000000000000000E+000
5,7231933E-001	7,881302249199751E-002	1,000000000000000E+000
5,8545262E-001	1,144997343655706E-001	1,000000000000000E+000
5,9839123E-001	1,690041163287925E-001	1,000000000000000E+000
6,1141658E-001	2,452376959803197E-001	1,000000000000000E+000
6,2441325E-001	3,480134339614560E-001	1,000000000000000E+000
6,3737816E-001	4,778872596695507E-001	1,000000000000000E+000
6,5037799E-001	6,372200421769332E-001	1,000000000000000E+000
6,6342038E-001	8,271827515206240E-001	1,000000000000000E+000
6,7639673E-001	1,048200630023233E+000	1,000000000000000E+000
6,8955165E-001	1,303137433865106E+000	1,000000000000000E+000
7,0262587E-001	1,582713636445082E+000	1,000000000000000E+000
7,1562672E-001	1,880156021928434E+000	1,000000000000000E+000
7,2855979E-001	2,208507106760543E+000	1,000000000000000E+000
7,4162751E-001	2,551715917243307E+000	1,000000000000000E+000
7,5461358E-001	2,917165126795140E+000	1,000000000000000E+000
7,6754129E-001	3,302693068541920E+000	1,000000000000000E+000
7,8056341E-001	3,702845533114438E+000	1,000000000000000E+000
7,9356962E-001	4,094753780366347E+000	1,000000000000000E+000
8,0657172E-001	4,526672852789458E+000	1,000000000000000E+000
8,1957680E-001	4,943608302073958E+000	1,000000000000000E+000
8,3260846E-001	5,383818285467967E+000	1,000000000000000E+000
8,4556913E-001	5,843234380829614E+000	1,000000000000000E+000
8,5864961E-001	6,286846428704109E+000	1,000000000000000E+000
8,7159324E-001	6,755287908636276E+000	1,000000000000000E+000
8,8461000E-001	7,230947316909351E+000	1,000000000000000E+000
8,9754188E-001	7,728393845952823E+000	1,000000000000000E+000
9,1056734E-001	8,225234979337055E+000	1,000000000000000E+000
9,2354375E-001	8,753737698606955E+000	1,000000000000000E+000
9,3659985E-001	9,283165875475976E+000	1,000000000000000E+000
9,4955957E-001	9,795503635795729E+000	1,000000000000000E+000
9,6256679E-001	1,031356839663323E+001	1,000000000000000E+000
9,7563350E-001	1,083953061524156E+001	1,000000000000000E+000
9,8876506E-001	1,136151471267755E+001	1,000000000000000E+000
9,9941725E-001	1,175663721351935E+001	1,000000000000000E+000
9,8637593E-001	1,086197157761677E+001	1,000000000000000E+000
9,7327626E-001	1,013048012368802E+001	1,000000000000000E+000
9,6033907E-001	9,468321717447701E+000	1,000000000000000E+000
9,4737422E-001	8,827450711170297E+000	1,000000000000000E+000
9,3431067E-001	8,243179976872540E+000	1,000000000000000E+000
9,2128211E-001	7,704628614746852E+000	1,000000000000000E+000
9,0834183E-001	7,150343065764631E+000	1,000000000000000E+000
8,9539820E-001	6,670092397446155E+000	1,000000000000000E+000
8,8238239E-001	6,190664488205556E+000	1,000000000000000E+000
8,6937189E-001	5,722909213159909E+000	1,000000000000000E+000
8,5636067E-001	5,295546075389366E+000	1,000000000000000E+000
8,4332651E-001	4,883517409803659E+000	1,000000000000000E+000
8,3036166E-001	4,504861511678655E+000	1,000000000000000E+000
8,1728119E-001	4,134744285084246E+000	1,000000000000000E+000
8,0427605E-001	3,755428640378852E+000	1,000000000000000E+000
7,9125166E-001	3,383690681114224E+000	1,000000000000000E+000
7,7826995E-001	3,043821124803456E+000	1,000000000000000E+000
7,6527011E-001	2,705472786511699E+000	1,000000000000000E+000
7,5227827E-001	2,393965906748061E+000	1,000000000000000E+000
7,3926497E-001	2,089793248123183E+000	1,000000000000000E+000
7,2628433E-001	1,802998252111635E+000	1,000000000000000E+000
7,1337062E-001	1,534073956727891E+000	1,000000000000000E+000
7,0032066E-001	1,283634407103671E+000	1,000000000000000E+000
6,8726343E-001	1,060739307252524E+000	1,000000000000000E+000
6,7428482E-001	8,522219000270166E-001	1,000000000000000E+000
6,6132212E-001	6,676608374354984E-001	1,000000000000000E+000
6,4829677E-001	5,093833676701971E-001	1,000000000000000E+000
6,3508767E-001	3,745976102785498E-001	1,000000000000000E+000
6,2209105E-001	2,671923423735016E-001	1,000000000000000E+000
6,0909224E-001	1,814906106566974E-001	1,000000000000000E+000
5,9606695E-001	1,184242334672989E-001	1,000000000000000E+000
5,8306813E-001	7,349892023606591E-002	1,000000000000000E+000
5,6990790E-001	4,351775163717497E-002	1,000000000000000E+000
5,5691546E-001	2,506720696659359E-002	1,000000000000000E+000
5,4389977E-001	1,397556582581394E-002	1,000000000000000E+000
5,3092760E-001	7,344126184547401E-003	1,000000000000000E+000
5,1779908E-001	3,132933622965656E-003	1,000000000000000E+000
5,0478232E-001	2,931616919073144E-004	1,000000000000000E+000
4,9184015E-001	-1,932032210627890E-003	1,000000000000000E+000
4,7884837E-001	-3,992407957156323E-003	1,000000000000000E+000
4,6579009E-001	-6,564883456107146E-003	1,000000000000000E+000
4,5269999E-001	-1,149915685838140E-002	1,000000000000000E+000
4,3968421E-001	-2,033069496934747E-002	1,000000000000000E+000
4,2668757E-001	-2,278142050449799E-002	1,000000000000000E+000
4,1371211E-001	-1,611450141139516E-002	1,000000000000000E+000
4,0073031E-001	-1,344065944932912E-002	1,000000000000000E+000
3,8772577E-001	-1,294034268803576E-002	1,000000000000000E+000
3,7479535E-001	-1,319987853289989E-002	1,000000000000000E+000
3,6171481E-001	-1,377976989669752E-002	1,000000000000000E+000
3,4878436E-001	-1,451242960331203E-002	1,000000000000000E+000
3,3572674E-001	-1,532443297278269E-002	1,000000000000000E+000
3,2270142E-001	-1,611257393716664E-002	1,000000000000000E+000
3,0975464E-001	-1,695570911773401E-002	1,000000000000000E+000
2,9667196E-001	-1,767145679820678E-002	1,000000000000000E+000
2,8374219E-001	-1,825051155952884E-002	1,000000000000000E+000
2,7075717E-001	-1,872241184751078E-002	1,000000000000000E+000
2,5768939E-001	-1,903437971704491E-002	1,000000000000000E+000
2,4475321E-001	-1,913928051738917E-002	1,000000000000000E+000
2,3175018E-001	-1,909037138168579E-002	1,000000000000000E+000
2,1873756E-001	-1,885643997506808E-002	1,000000000000000E+000
2,0573671E-001	-1,847217092812070E-002	1,000000000000000E+000
1,9271342E-001	-1,790548515648110E-002	1,000000000000000E+000
1,7975818E-001	-1,721957907985577E-002	1,000000000000000E+000
1,6675299E-001	-1,653821014560539E-002	1,000000000000000E+000
1,5377119E-001	-1,571963181760891E-002	1,000000000000000E+000
1,4076708E-001	-1,491413308297496E-002	1,000000000000000E+000
1,2779483E-001	-1,403657204902869E-002	1,000000000000000E+000
1,1473445E-001	-1,321649623181047E-002	1,000000000000000E+000
1,0177812E-001	-1,240253695334326E-002	1,000000000000000E+000
8,8700749E-002	-1,158579953831607E-002	1,000000000000000E+000
7,5768851E-002	-1,083704938728240E-002	1,000000000000000E+000
6,2716849E-002	-1,011868456020695E-002	1,000000000000000E+000
4,9774438E-002	-9,452227443929699E-003	1,000000000000000E+000
3,6806434E-002	-8,853771443129765E-003	1,000000000000000E+000
2,3754548E-002	-8,288480602511056E-003	1,000000000000000E+000
1,0735575E-002	-7,749801552843921E-003	1,000000000000000E+000
-2,1178722E-004	-7,349314825499775E-003	1,000000000000000E+000

File: Ni100_Activity_1_CV_1_02_CV_C01.txt
Ewe/V	<I>/mA	cycle number
1,6860453E-004	-1,284633040428162E+000	1,000000000000000E+000
1,2964594E-002	-8,256750557225308E-002	1,000000000000000E+000
2,6079420E-002	-4,522152456600947E-002	1,000000000000000E+000
3,9184112E-002	-3,071608323294495E-002	1,000000000000000E+000
5,2176535E-002	-2,291828321882738E-002	1,000000000000000E+000
6,5160468E-002	-1,797606387635478E-002	1,000000000000000E+000
7,8129537E-002	-1,454957901915141E-002	1,000000000000000E+000
9,1176115E-002	-1,201747111102905E-002	1,000000000000000E+000
1,0415366E-001	-1,004318505221483E-002	1,000000000000000E+000
1,1712592E-001	-8,459998074353478E-003	1,000000000000000E+000
1,3018391E-001	-7,153201799096450E-003	1,000000000000000E+000
1,4319360E-001	-6,063998913989802E-003	1,000000000000000E+000
1,5618391E-001	-5,155264256439432E-003	1,000000000000000E+000
1,6924748E-001	-4,490756900309747E-003	1,000000000000000E+000
1,8227707E-001	-3,810982671545187E-003	1,000000000000000E+000
1,9524932E-001	-3,204916966770187E-003	1,000000000000000E+000
2,0821306E-001	-2,703690190648141E-003	1,000000000000000E+000
2,2126392E-001	-2,256008319513421E-003	1,000000000000000E+000
2,3424464E-001	-1,865662499990230E-003	1,000000000000000E+000
2,4726380E-001	-1,530938324675180E-003	1,000000000000000E+000
2,6027516E-001	-1,237090990598558E-003	1,000000000000000E+000
2,7327821E-001	-9,916761408190686E-004	1,000000000000000E+000
2,8629082E-001	-7,789198324543506E-004	1,000000000000000E+000
2,9926309E-001	-5,957171526003160E-004	1,000000000000000E+000
3,1227463E-001	-4,260564758789492E-004	1,000000000000000E+000
3,2521504E-001	-2,766684578395049E-004	1,000000000000000E+000
3,3822337E-001	-1,581321996383622E-004	1,000000000000000E+000
3,5119453E-001	-2,854491866276551E-005	1,000000000000000E+000
3,6426663E-001	9,918125207034815E-005	1,000000000000000E+000
3,7721765E-001	2,466148294718638E-004	1,000000000000000E+000
3,9017713E-001	3,903743323448894E-004	1,000000000000000E+000
4,0317059E-001	5,557833891690275E-004	1,000000000000000E+000
4,1618004E-001	7,521976082884140E-004	1,000000000000000E+000
4,2914671E-001	1,054781700610612E-003	1,000000000000000E+000
4,4214156E-001	1,768834114631308E-003	1,000000000000000E+000
4,5514774E-001	4,177730884729017E-003	1,000000000000000E+000
4,6829525E-001	1,020267317185070E-002	1,000000000000000E+000
4,8125052E-001	1,823890156019153E-002	1,000000000000000E+000
4,9430877E-001	2,736617680987474E-002	1,000000000000000E+000
5,0735110E-001	3,726066559418001E-002	1,000000000000000E+000
5,2039766E-001	4,883311883585506E-002	1,000000000000000E+000
5,3328705E-001	6,053628666007527E-002	1,000000000000000E+000
5,4634219E-001	7,234782602973944E-002	1,000000000000000E+000
5,5929208E-001	8,600080500107654E-002	1,000000000000000E+000
5,7237697E-001	1,146639520460806E-001	1,000000000000000E+000
5,8536506E-001	1,648721222379272E-001	1,000000000000000E+000
5,9836715E-001	2,353013569548257E-001	1,000000000000000E+000
6,1141580E-001	3,234772760243629E-001	1,000000000000000E+000
6,2435722E-001	4,348143180473265E-001	1,000000000000000E+000
6,3737196E-001	5,679862580036152E-001	1,000000000000000E+000
6,5033895E-001	7,248680826462355E-001	1,000000000000000E+000
6,6338611E-001	9,061891037149721E-001	1,000000000000000E+000
6,7650849E-001	1,110573412187383E+000	1,000000000000000E+000
6,8949038E-001	1,345020198725722E+000	1,000000000000000E+000
7,0245308E-001	1,602591085900251E+000	1,000000000000000E+000
7,1541363E-001	1,873219748507010E+000	1,000000000000000E+000
7,2842723E-001	2,177654919412227E+000	1,000000000000000E+000
7,4148130E-001	2,506927676752312E+000	1,000000000000000E+000
7,5449497E-001	2,842954915008441E+000	1,000000000000000E+000
7,6745874E-001	3,190781242892037E+000	1,000000000000000E+000
7,8045112E-001	3,561383119989145E+000	1,000000000000000E+000
7,9341489E-001	3,947021962293427E+000	1,000000000000000E+000
8,0649441E-001	4,331280373493016E+000	1,000000000000000E+000
8,1949002E-001	4,716882157116231E+000	1,000000000000000E+000
8,3245796E-001	5,118811757183394E+000	1,000000000000000E+000
8,4548116E-001	5,533247923076688E+000	1,000000000000000E+000
8,5850126E-001	5,947364691366140E+000	1,000000000000000E+000
8,7141502E-001	6,389652510821975E+000	1,000000000000000E+000
8,8444883E-001	6,810111983225189E+000	1,000000000000000E+000
8,9750081E-001	7,269267925532240E+000	1,000000000000000E+000
9,1045713E-001	7,746804721163516E+000	1,000000000000000E+000
9,2342830E-001	8,217438374719876E+000	1,000000000000000E+000
9,3648446E-001	8,679226820025580E+000	1,000000000000000E+000
9,4946837E-001	9,127811145687843E+000	1,000000000000000E+000
9,6251643E-001	9,577667112977039E+000	1,000000000000000E+000
9,7543311E-001	1,000969718548718E+001	1,000000000000000E+000
9,8844886E-001	1,049094286682653E+001	1,000000000000000E+000
9,9929971E-001	1,082943241335366E+001	1,000000000000000E+000
9,8627532E-001	9,975424755389984E+000	1,000000000000000E+000
9,7323400E-001	9,325449225718756E+000	1,000000000000000E+000
9,6027142E-001	8,721568404614544E+000	1,000000000000000E+000
9,4729912E-001	8,194555054784104E+000	1,000000000000000E+000
9,3425149E-001	7,695949814892643E+000	1,000000000000000E+000
9,2122507E-001	7,211070152704963E+000	1,000000000000000E+000
9,0823364E-001	6,764430240371084E+000	1,000000000000000E+000
8,9523387E-001	6,320081165791080E+000	1,000000000000000E+000
8,8225645E-001	5,901131404315407E+000	1,000000000000000E+000
8,6927652E-001	5,490474085621273E+000	1,000000000000000E+000
8,5622895E-001	5,098532348905024E+000	1,000000000000000E+000
8,4325558E-001	4,733428329972710E+000	1,000000000000000E+000
8,3030885E-001	4,368129842507074E+000	1,000000000000000E+000
8,1724954E-001	4,038942449555094E+000	1,000000000000000E+000
8,0420929E-001	3,704250394385685E+000	1,000000000000000E+000
7,9127318E-001	3,375917550015870E+000	1,000000000000000E+000
7,7831161E-001	3,055995601510233E+000	1,000000000000000E+000
7,6524717E-001	2,749246295439903E+000	1,000000000000000E+000
7,5226408E-001	2,446863639804109E+000	1,000000000000000E+000
7,3923129E-001	2,165646497438956E+000	1,000000000000000E+000
7,2629404E-001	1,896074030252676E+000	1,000000000000000E+000
7,1328360E-001	1,643607215011155E+000	1,000000000000000E+000
7,0031452E-001	1,394658858788599E+000	1,000000000000000E+000
6,8729454E-001	1,180988901056132E+000	1,000000000000000E+000
6,7430204E-001	9,744435759882126E-001	1,000000000000000E+000
6,6128737E-001	7,898950391953754E-001	1,000000000000000E+000
6,4828110E-001	6,294929935497899E-001	1,000000000000000E+000
6,3525051E-001	4,855685018873084E-001	1,000000000000000E+000
6,2219220E-001	3,638290017674279E-001	1,000000000000000E+000
6,0917532E-001	2,604243125462404E-001	1,000000000000000E+000
5,9619457E-001	1,782461478355892E-001	1,000000000000000E+000
5,8321935E-001	1,151735982456903E-001	1,000000000000000E+000
5,7017469E-001	6,863038239329058E-002	1,000000000000000E+000
5,5707711E-001	3,693276766952680E-002	1,000000000000000E+000
5,4410595E-001	1,796727639579691E-002	1,000000000000000E+000
5,3107947E-001	7,309373216125403E-003	1,000000000000000E+000
5,1784825E-001	1,350660546689177E-003	1,000000000000000E+000
5,0490463E-001	-1,881169197146926E-003	1,000000000000000E+000
4,9186763E-001	-4,112593942186424E-003	1,000000000000000E+000
4,7889853E-001	-6,128530285278655E-003	1,000000000000000E+000
4,6592289E-001	-8,611774356318880E-003	1,000000000000000E+000
4,5279473E-001	-1,364913132358996E-002	1,000000000000000E+000
4,3980980E-001	-2,500815026286790E-002	1,000000000000000E+000
4,2688641E-001	-3,004121588244236E-002	1,000000000000000E+000
4,1383767E-001	-1,990071692688247E-002	1,000000000000000E+000
4,0081441E-001	-1,606238078824380E-002	1,000000000000000E+000
3,8778910E-001	-1,511073690076732E-002	1,000000000000000E+000
3,7481686E-001	-1,475263202072978E-002	1,000000000000000E+000
3,6180425E-001	-1,460828676399020E-002	1,000000000000000E+000
3,4884578E-001	-1,455567418240389E-002	1,000000000000000E+000
3,3580136E-001	-1,451939552000253E-002	1,000000000000000E+000
3,2279617E-001	-1,448587083485814E-002	1,000000000000000E+000
3,0982178E-001	-1,447579602416835E-002	1,000000000000000E+000
2,9684848E-001	-1,444744128446664E-002	1,000000000000000E+000
2,8383726E-001	-1,440583469313753E-002	1,000000000000000E+000
2,7077127E-001	-1,437361691149192E-002	1,000000000000000E+000
2,5785846E-001	-1,431493276662592E-002	1,000000000000000E+000
2,4487983E-001	-1,428816901058461E-002	1,000000000000000E+000
2,3188211E-001	-1,423932327582690E-002	1,000000000000000E+000
2,1885994E-001	-1,417844721932879E-002	1,000000000000000E+000
2,0581654E-001	-1,410503023200569E-002	1,000000000000000E+000
1,9283794E-001	-1,397624638160194E-002	1,000000000000000E+000
1,7984976E-001	-1,382109737923887E-002	1,000000000000000E+000
1,6681795E-001	-1,363609781780323E-002	1,000000000000000E+000
1,5381818E-001	-1,339789330729657E-002	1,000000000000000E+000
1,4084487E-001	-1,315150666816156E-002	1,000000000000000E+000
1,2780996E-001	-1,286049507272724E-002	1,000000000000000E+000
1,1482391E-001	-1,256021325512893E-002	1,000000000000000E+000
1,0186545E-001	-1,220569586132647E-002	1,000000000000000E+000
8,8878341E-002	-1,184213197844991E-002	1,000000000000000E+000
7,5889096E-002	-1,143057512337456E-002	1,000000000000000E+000
6,2858440E-002	-1,102956871437691E-002	1,000000000000000E+000
4,9876310E-002	-1,060864582789134E-002	1,000000000000000E+000
3,6867220E-002	-1,018538433049232E-002	1,000000000000000E+000
2,3841877E-002	-9,819510101608364E-003	1,000000000000000E+000
1,0827153E-002	-9,440246726467538E-003	1,000000000000000E+000
-2,7098900E-004	-9,115903528735918E-003	1,000000000000000E+000