Folder: nife-mo-alkaline-oer-data/fig_4_nife_ceo2/Activity_2_CV (part 4)

File: Ni100_Activity_2_CV_2_02_CV_C01.txt
Ewe/V	<I>/mA	cycle number
-9,9356417E-005	-2,171758115291595E-001	1,000000000000000E+000
1,2664779E-002	-1,726137795878885E-002	1,000000000000000E+000
2,5570134E-002	-9,360009607966652E-003	1,000000000000000E+000
3,8661312E-002	-6,023142979628944E-003	1,000000000000000E+000
5,1759925E-002	-4,208864634138555E-003	1,000000000000000E+000
6,4776771E-002	-3,057857980230870E-003	1,000000000000000E+000
7,7759638E-002	-2,290722422508724E-003	1,000000000000000E+000
9,0742506E-002	-1,731912333795708E-003	1,000000000000000E+000
1,0365848E-001	-1,355544225717124E-003	1,000000000000000E+000
1,1670390E-001	-1,059970272333510E-003	1,000000000000000E+000
1,2969536E-001	-8,424343715326566E-004	1,000000000000000E+000
1,4265276E-001	-7,265124387488501E-004	1,000000000000000E+000
1,5568128E-001	-6,350836548292484E-004	1,000000000000000E+000
1,6866016E-001	-5,607362792284950E-004	1,000000000000000E+000
1,8169907E-001	-5,006082531133754E-004	1,000000000000000E+000
1,9464161E-001	-4,839331135399901E-004	1,000000000000000E+000
2,0763613E-001	-4,630817803360516E-004	1,000000000000000E+000
2,2059140E-001	-4,221147808518445E-004	1,000000000000000E+000
2,3361886E-001	-3,653756150599034E-004	1,000000000000000E+000
2,4666758E-001	-3,514296727667541E-004	1,000000000000000E+000
2,5961855E-001	-2,709781137872228E-004	1,000000000000000E+000
2,7263227E-001	-2,511587901297546E-004	1,000000000000000E+000
2,8561938E-001	-2,106374921051547E-004	1,000000000000000E+000
2,9859689E-001	-1,904054015565955E-004	1,000000000000000E+000
3,1162438E-001	-1,724283292642084E-004	1,000000000000000E+000
3,2455099E-001	-1,452291760124087E-004	1,000000000000000E+000
3,3758268E-001	-1,007810238444224E-004	1,000000000000000E+000
3,5063568E-001	1,934196170864222E-005	1,000000000000000E+000
3,6359516E-001	1,162209045648987E-004	1,000000000000000E+000
3,7661517E-001	2,429709404501160E-004	1,000000000000000E+000
3,8965145E-001	3,644558223209983E-004	1,000000000000000E+000
4,0258199E-001	4,619271053883326E-004	1,000000000000000E+000
4,1563383E-001	6,046231728347713E-004	1,000000000000000E+000
4,2862633E-001	7,583389500900907E-004	1,000000000000000E+000
4,4167712E-001	9,599689862899649E-004	1,000000000000000E+000
4,5466003E-001	1,273808275728776E-003	1,000000000000000E+000
4,6762800E-001	1,843648639977083E-003	1,000000000000000E+000
4,8067990E-001	2,770100175734355E-003	1,000000000000000E+000
4,9369037E-001	4,354785586613050E-003	1,000000000000000E+000
5,0672102E-001	7,369653104678825E-003	1,000000000000000E+000
5,1981860E-001	1,432378046426294E-002	1,000000000000000E+000
5,3276426E-001	2,455731227206237E-002	1,000000000000000E+000
5,4573441E-001	3,571176980917773E-002	1,000000000000000E+000
5,5877876E-001	4,662289831572309E-002	1,000000000000000E+000
5,7179677E-001	6,810130315142260E-002	1,000000000000000E+000
5,8479774E-001	1,061667989814847E-001	1,000000000000000E+000
5,9791541E-001	1,611220721533431E-001	1,000000000000000E+000
6,1084861E-001	2,326155387484672E-001	1,000000000000000E+000
6,2388122E-001	3,223550887630569E-001	1,000000000000000E+000
6,3681412E-001	4,376911375198551E-001	1,000000000000000E+000
6,4991701E-001	5,815341408341221E-001	1,000000000000000E+000
6,6285211E-001	7,691329925441366E-001	1,000000000000000E+000
6,7592841E-001	9,963948038531241E-001	1,000000000000000E+000
6,8900472E-001	1,275103068929546E+000	1,000000000000000E+000
7,0197701E-001	1,605751265338763E+000	1,000000000000000E+000
7,1494812E-001	1,972064736613883E+000	1,000000000000000E+000
7,2791803E-001	2,398139892533429E+000	1,000000000000000E+000
7,4100095E-001	2,859764626693160E+000	1,000000000000000E+000
7,5394982E-001	3,333950172307254E+000	1,000000000000000E+000
7,6697099E-001	3,852962182999462E+000	1,000000000000000E+000
7,7998579E-001	4,391924809992645E+000	1,000000000000000E+000
7,9298973E-001	4,936457062929925E+000	1,000000000000000E+000
8,0599606E-001	5,534989231263964E+000	1,000000000000000E+000
8,1897038E-001	6,112600511028688E+000	1,000000000000000E+000
8,3194506E-001	6,718013151898745E+000	1,000000000000000E+000
8,4491491E-001	7,321257320053192E+000	1,000000000000000E+000
8,5794878E-001	7,958515833429729E+000	1,000000000000000E+000
8,7094539E-001	8,615259181682774E+000	1,000000000000000E+000
8,8398242E-001	9,234715504373273E+000	1,000000000000000E+000
8,9698434E-001	9,872809691967092E+000	1,000000000000000E+000
9,0994507E-001	1,054660316375917E+001	1,000000000000000E+000
9,2304045E-001	1,126229821763877E+001	1,000000000000000E+000
9,3602115E-001	1,186267915361321E+001	1,000000000000000E+000
9,4909006E-001	1,252959780830918E+001	1,000000000000000E+000
9,6209091E-001	1,328957463702918E+001	1,000000000000000E+000
9,7506320E-001	1,385223263407516E+001	1,000000000000000E+000
9,8804396E-001	1,458270882195097E+001	1,000000000000000E+000
9,9980390E-001	1,513570922028782E+001	1,000000000000000E+000
9,8728150E-001	1,395590617948650E+001	1,000000000000000E+000
9,7436768E-001	1,304334866405890E+001	1,000000000000000E+000
9,6136898E-001	1,226322254133062E+001	1,000000000000000E+000
9,4836479E-001	1,147196804321533E+001	1,000000000000000E+000
9,3530679E-001	1,078639693045004E+001	1,000000000000000E+000
9,2229390E-001	9,990635783223617E+000	1,000000000000000E+000
9,0930796E-001	9,350734867138669E+000	1,000000000000000E+000
8,9635360E-001	8,672799012355519E+000	1,000000000000000E+000
8,8329339E-001	8,061005261323288E+000	1,000000000000000E+000
8,7031782E-001	7,453775406965054E+000	1,000000000000000E+000
8,5738707E-001	6,826163511630384E+000	1,000000000000000E+000
8,4432662E-001	6,294189162535446E+000	1,000000000000000E+000
8,3134687E-001	5,755882640713459E+000	1,000000000000000E+000
8,1832701E-001	5,214893296124433E+000	1,000000000000000E+000
8,0533552E-001	4,736066937007337E+000	1,000000000000000E+000
7,9210103E-001	4,262029508276584E+000	1,000000000000000E+000
7,7919888E-001	3,765209013169589E+000	1,000000000000000E+000
7,6615870E-001	3,345255686447459E+000	1,000000000000000E+000
7,5315982E-001	2,911700407832939E+000	1,000000000000000E+000
7,4014938E-001	2,513964954755210E+000	1,000000000000000E+000
7,2717923E-001	2,152663531521014E+000	1,000000000000000E+000
7,1413487E-001	1,805927784348341E+000	1,000000000000000E+000
7,0113492E-001	1,485466182417746E+000	1,000000000000000E+000
6,8813187E-001	1,208889847245415E+000	1,000000000000000E+000
6,7516708E-001	9,609290015146748E-001	1,000000000000000E+000
6,6222447E-001	7,477129128721862E-001	1,000000000000000E+000
6,4915562E-001	5,695508145125336E-001	1,000000000000000E+000
6,3597214E-001	4,260264792460573E-001	1,000000000000000E+000
6,2299454E-001	3,111590991565389E-001	1,000000000000000E+000
6,1001801E-001	2,235997978517634E-001	1,000000000000000E+000
5,9700549E-001	1,497161507315075E-001	1,000000000000000E+000
5,8392274E-001	9,638818107068126E-002	1,000000000000000E+000
5,7098341E-001	5,817092597366355E-002	1,000000000000000E+000
5,5777436E-001	3,249515521011692E-002	1,000000000000000E+000
5,4478353E-001	1,755697089678407E-002	1,000000000000000E+000
5,3182667E-001	9,454606740673166E-003	1,000000000000000E+000
5,1880133E-001	5,404255763832706E-003	1,000000000000000E+000
5,0568461E-001	3,108164636715746E-003	1,000000000000000E+000
4,9263051E-001	1,920129447083543E-003	1,000000000000000E+000
4,7964889E-001	9,199086663780713E-004	1,000000000000000E+000
4,6663943E-001	-4,112554717669858E-004	1,000000000000000E+000
4,5364070E-001	-3,399683196095502E-003	1,000000000000000E+000
4,4060043E-001	-1,160936844783314E-002	1,000000000000000E+000
4,2760167E-001	-1,649950381290255E-002	1,000000000000000E+000
4,1460493E-001	-8,138339671735523E-003	1,000000000000000E+000
4,0142247E-001	-3,599641764248249E-003	1,000000000000000E+000
3,8847253E-001	-2,240974759682220E-003	1,000000000000000E+000
3,7550136E-001	-1,569427854835288E-003	1,000000000000000E+000
3,6250362E-001	-1,252354383552116E-003	1,000000000000000E+000
3,4953985E-001	-1,058593722735255E-003	1,000000000000000E+000
3,3656234E-001	-9,128231860830172E-004	1,000000000000000E+000
3,2347441E-001	-8,094212625265225E-004	1,000000000000000E+000
3,1049249E-001	-7,265861134776105E-004	1,000000000000000E+000
2,9749793E-001	-6,817059608059811E-004	1,000000000000000E+000
2,8454164E-001	-6,431658493883637E-004	1,000000000000000E+000
2,7156511E-001	-6,460215227419921E-004	1,000000000000000E+000
2,5853550E-001	-6,373454935018098E-004	1,000000000000000E+000
2,4550913E-001	-6,277838802938092E-004	1,000000000000000E+000
2,3252624E-001	-6,229055136677255E-004	1,000000000000000E+000
2,1949880E-001	-6,402615571688966E-004	1,000000000000000E+000
2,0648831E-001	-6,967520498568146E-004	1,000000000000000E+000
1,9351286E-001	-8,022500295079803E-004	1,000000000000000E+000
1,8051830E-001	-9,384864496251033E-004	1,000000000000000E+000
1,6741653E-001	-1,115906787105367E-003	1,000000000000000E+000
1,5441029E-001	-1,280926479956663E-003	1,000000000000000E+000
1,4137962E-001	-1,372030414853412E-003	1,000000000000000E+000
1,2844242E-001	-1,358303770192543E-003	1,000000000000000E+000
1,1540433E-001	-1,281629411723169E-003	1,000000000000000E+000
1,0241199E-001	-1,133721458305972E-003	1,000000000000000E+000
8,9488499E-002	-9,798275894111119E-004	1,000000000000000E+000
7,6496080E-002	-8,505867591006699E-004	1,000000000000000E+000
6,3493021E-002	-7,021897044710585E-004	1,000000000000000E+000
5,0526764E-002	-6,011437445809335E-004	1,000000000000000E+000
3,7495434E-002	-5,360912866654213E-004	1,000000000000000E+000
2,4525307E-002	-5,809794147889624E-004	1,000000000000000E+000
1,1555178E-002	-6,860991143226216E-004	1,000000000000000E+000
-4,2018131E-005	-8,612448690851759E-004	1,000000000000000E+000