Folder: nife-mo-alkaline-oer-data/fig_4_nife_ceo2/Activity_1_CV (part 2)

File: Ni25Fe75_Activity_1_CV_1_02_CV_C01.txt
Ewe/V	<I>/mA	cycle number
2,8175203E-004	-4,624285995960236E-001	1,000000000000000E+000
1,3012049E-002	-8,486135693060851E-003	1,000000000000000E+000
2,6134562E-002	-4,111639581797978E-003	1,000000000000000E+000
3,9195325E-002	-2,560638120691470E-003	1,000000000000000E+000
5,2214295E-002	-1,746251162178126E-003	1,000000000000000E+000
6,5181240E-002	-1,243136466845150E-003	1,000000000000000E+000
7,8210838E-002	-9,001846570226464E-004	1,000000000000000E+000
9,1179892E-002	-6,508933574321182E-004	1,000000000000000E+000
1,0414046E-001	-4,656562241940435E-004	1,000000000000000E+000
1,1716899E-001	-3,153742052461046E-004	1,000000000000000E+000
1,3019069E-001	-1,919324599059787E-004	1,000000000000000E+000
1,4312896E-001	-8,771882698852343E-005	1,000000000000000E+000
1,5616009E-001	-1,274213966529552E-007	1,000000000000000E+000
1,6922790E-001	7,729996307576416E-005	1,000000000000000E+000
1,8215981E-001	1,481127816642871E-004	1,000000000000000E+000
1,9513418E-001	2,083345255923714E-004	1,000000000000000E+000
2,0816803E-001	2,654482341375136E-004	1,000000000000000E+000
2,2113284E-001	3,166074827056359E-004	1,000000000000000E+000
2,3417199E-001	3,608814578865450E-004	1,000000000000000E+000
2,4715841E-001	4,023085384982773E-004	1,000000000000000E+000
2,6013094E-001	4,388094515843247E-004	1,000000000000000E+000
2,7315456E-001	4,756027045998952E-004	1,000000000000000E+000
2,8619158E-001	5,133368712884889E-004	1,000000000000000E+000
2,9916811E-001	5,400324396784718E-004	1,000000000000000E+000
3,1211913E-001	5,671428079784720E-004	1,000000000000000E+000
3,2512748E-001	5,931539426105269E-004	1,000000000000000E+000
3,3815283E-001	6,174158780119062E-004	1,000000000000000E+000
3,5117605E-001	6,382823992354780E-004	1,000000000000000E+000
3,6415941E-001	6,613336124895804E-004	1,000000000000000E+000
3,7712660E-001	6,839210357659073E-004	1,000000000000000E+000
3,9013845E-001	6,993829643645796E-004	1,000000000000000E+000
4,0311602E-001	7,186290076994471E-004	1,000000000000000E+000
4,1610843E-001	7,468994953096775E-004	1,000000000000000E+000
4,2909342E-001	7,843846166768441E-004	1,000000000000000E+000
4,4210815E-001	8,488275992366390E-004	1,000000000000000E+000
4,5513985E-001	9,295998108650493E-004	1,000000000000000E+000
4,6812803E-001	1,061992835706336E-003	1,000000000000000E+000
4,8107162E-001	1,300240557336709E-003	1,000000000000000E+000
4,9413478E-001	1,884197052015445E-003	1,000000000000000E+000
5,0710541E-001	3,759215834061936E-003	1,000000000000000E+000
5,2015084E-001	9,605755047347855E-003	1,000000000000000E+000
5,3319848E-001	2,202901229261829E-002	1,000000000000000E+000
5,4623872E-001	3,776035836951670E-002	1,000000000000000E+000
5,5916953E-001	5,934475106979109E-002	1,000000000000000E+000
5,7222039E-001	1,021393915287763E-001	1,000000000000000E+000
5,8531785E-001	1,719272282489841E-001	1,000000000000000E+000
5,9829021E-001	2,688322739713653E-001	1,000000000000000E+000
6,1129630E-001	3,929790259775412E-001	1,000000000000000E+000
6,2429947E-001	5,486120525916496E-001	1,000000000000000E+000
6,3730460E-001	7,381860537458715E-001	1,000000000000000E+000
6,5023965E-001	9,706079401667131E-001	1,000000000000000E+000
6,6335207E-001	1,240783193949062E+000	1,000000000000000E+000
6,7644006E-001	1,557641351616635E+000	1,000000000000000E+000
6,8942833E-001	1,901327125609863E+000	1,000000000000000E+000
7,0239943E-001	2,280317230914591E+000	1,000000000000000E+000
7,1541417E-001	2,685961909811784E+000	1,000000000000000E+000
7,2835791E-001	3,124529977481316E+000	1,000000000000000E+000
7,4137890E-001	3,579315618559075E+000	1,000000000000000E+000
7,5438619E-001	4,061925906679523E+000	1,000000000000000E+000
7,6734996E-001	4,556489544998769E+000	1,000000000000000E+000
7,8044111E-001	5,060926099314173E+000	1,000000000000000E+000
7,9342294E-001	5,591203792362812E+000	1,000000000000000E+000
8,0639297E-001	6,131676484566725E+000	1,000000000000000E+000
8,1944489E-001	6,672431113836183E+000	1,000000000000000E+000
8,3241296E-001	7,236821806890333E+000	1,000000000000000E+000
8,4535980E-001	7,819226841748431E+000	1,000000000000000E+000
8,5840738E-001	8,397950331032135E+000	1,000000000000000E+000
8,7139136E-001	9,006696978123586E+000	1,000000000000000E+000
8,8442290E-001	9,629150357578855E+000	1,000000000000000E+000
8,9738572E-001	1,025637421998574E+001	1,000000000000000E+000
9,1043895E-001	1,093467321831022E+001	1,000000000000000E+000
9,2345011E-001	1,158910520188928E+001	1,000000000000000E+000
9,3647772E-001	1,227840619198048E+001	1,000000000000000E+000
9,4949019E-001	1,295268157388085E+001	1,000000000000000E+000
9,6249330E-001	1,364278099410052E+001	1,000000000000000E+000
9,7546446E-001	1,432969236630703E+001	1,000000000000000E+000
9,8846430E-001	1,501873723557742E+001	1,000000000000000E+000
9,9920887E-001	1,554925572412617E+001	1,000000000000000E+000
9,8624414E-001	1,461510626772358E+001	1,000000000000000E+000
9,7324419E-001	1,379071126016632E+001	1,000000000000000E+000
9,6022844E-001	1,300973875222563E+001	1,000000000000000E+000
9,4725513E-001	1,226831512001095E+001	1,000000000000000E+000
9,3426377E-001	1,154547682032834E+001	1,000000000000000E+000
9,2123401E-001	1,086117379165010E+001	1,000000000000000E+000
9,0828848E-001	1,018785197887563E+001	1,000000000000000E+000
8,9525145E-001	9,538378934673759E+000	1,000000000000000E+000
8,8220590E-001	8,931800174334711E+000	1,000000000000000E+000
8,6926651E-001	8,321286049491945E+000	1,000000000000000E+000
8,5624647E-001	7,740258061966927E+000	1,000000000000000E+000
8,4324241E-001	7,177234925785868E+000	1,000000000000000E+000
8,3027017E-001	6,630561054158335E+000	1,000000000000000E+000
8,1727988E-001	6,098399701673969E+000	1,000000000000000E+000
8,0425566E-001	5,587341362055632E+000	1,000000000000000E+000
7,9127377E-001	5,082988347123283E+000	1,000000000000000E+000
7,7825594E-001	4,600737249330876E+000	1,000000000000000E+000
7,6509035E-001	4,127213624734736E+000	1,000000000000000E+000
7,5210118E-001	3,670421757800767E+000	1,000000000000000E+000
7,3907679E-001	3,232769231643546E+000	1,000000000000000E+000
7,2604090E-001	2,827829236988322E+000	1,000000000000000E+000
7,1312702E-001	2,436121719224113E+000	1,000000000000000E+000
7,0006657E-001	2,068545314460115E+000	1,000000000000000E+000
6,8708777E-001	1,733924152378399E+000	1,000000000000000E+000
6,7409724E-001	1,427975747480689E+000	1,000000000000000E+000
6,6105431E-001	1,157494688224970E+000	1,000000000000000E+000
6,4822865E-001	9,130666789064477E-001	1,000000000000000E+000
6,3506526E-001	7,057048543831526E-001	1,000000000000000E+000
6,2212908E-001	5,292188049528477E-001	1,000000000000000E+000
6,0899121E-001	3,807936633119768E-001	1,000000000000000E+000
5,9598500E-001	2,635838452139510E-001	1,000000000000000E+000
5,8297020E-001	1,703128400871157E-001	1,000000000000000E+000
5,6995451E-001	1,000805072658593E-001	1,000000000000000E+000
5,5696458E-001	5,301260342130698E-002	1,000000000000000E+000
5,4388463E-001	2,414661836285091E-002	1,000000000000000E+000
5,3090703E-001	9,230827234456812E-003	1,000000000000000E+000
5,1785415E-001	2,262345291732215E-003	1,000000000000000E+000
5,0481814E-001	-5,961423195042785E-004	1,000000000000000E+000
4,9176523E-001	-1,950897464058528E-003	1,000000000000000E+000
4,7878447E-001	-2,957458088537170E-003	1,000000000000000E+000
4,6579200E-001	-4,252814727913490E-003	1,000000000000000E+000
4,5274973E-001	-7,176757016949864E-003	1,000000000000000E+000
4,3972403E-001	-1,641830759543289E-002	1,000000000000000E+000
4,2670539E-001	-2,283551749367323E-002	1,000000000000000E+000
4,1369915E-001	-1,041205115117398E-002	1,000000000000000E+000
4,0070564E-001	-4,742374716311018E-003	1,000000000000000E+000
3,8753590E-001	-3,106797332293357E-003	1,000000000000000E+000
3,7449360E-001	-2,422956728909414E-003	1,000000000000000E+000
3,6150539E-001	-2,057884606641507E-003	1,000000000000000E+000
3,4855440E-001	-1,836821718367541E-003	1,000000000000000E+000
3,3549616E-001	-1,660408860431770E-003	1,000000000000000E+000
3,2245663E-001	-1,518585629282147E-003	1,000000000000000E+000
3,0953145E-001	-1,392443666162085E-003	1,000000000000000E+000
2,9651567E-001	-1,292344527430278E-003	1,000000000000000E+000
2,8346908E-001	-1,215033024184072E-003	1,000000000000000E+000
2,7051914E-001	-1,155318833498275E-003	1,000000000000000E+000
2,5753626E-001	-1,119927472835590E-003	1,000000000000000E+000
2,4452367E-001	-1,106165028293681E-003	1,000000000000000E+000
2,3153549E-001	-1,118774987498040E-003	1,000000000000000E+000
2,1850589E-001	-1,135518808798412E-003	1,000000000000000E+000
2,0555125E-001	-1,148692874201742E-003	1,000000000000000E+000
1,9249599E-001	-1,144245010359602E-003	1,000000000000000E+000
1,7954455E-001	-1,121928771495652E-003	1,000000000000000E+000
1,6652027E-001	-1,088928980788793E-003	1,000000000000000E+000
1,5354164E-001	-1,046836929006218E-003	1,000000000000000E+000
1,4051522E-001	-1,010244748951561E-003	1,000000000000000E+000
1,2755466E-001	-9,782251233493421E-004	1,000000000000000E+000
1,1458346E-001	-9,700233568267803E-004	1,000000000000000E+000
1,0156343E-001	-9,731894074867277E-004	1,000000000000000E+000
8,8585377E-002	-1,006215964704769E-003	1,000000000000000E+000
7,5558841E-002	-1,049643812265060E-003	1,000000000000000E+000
6,2591456E-002	-1,093415350624131E-003	1,000000000000000E+000
4,9566120E-002	-1,122405620013265E-003	1,000000000000000E+000
3,6558826E-002	-1,132164151210656E-003	1,000000000000000E+000
2,3553655E-002	-1,126576707690286E-003	1,000000000000000E+000
1,0579280E-002	-1,119439348835769E-003	1,000000000000000E+000
-1,9606702E-004	-1,103250522111706E-003	1,000000000000000E+000

File: Ni50Fe50_Activity1_CV1_02_CV_C01.txt
Ewe/V	<I>/mA	cycle number
1,8872067E-004	-5,038733482360840E-001	1,000000000000000E+000
1,5754322E-002	-4,480561850447137E-003	1,000000000000000E+000
3,1842630E-002	-2,138082692434602E-003	1,000000000000000E+000
4,7865495E-002	-1,262859793563962E-003	1,000000000000000E+000
6,3869536E-002	-7,965477902043749E-004	1,000000000000000E+000
7,9861306E-002	-5,110348648154212E-004	1,000000000000000E+000
9,5859751E-002	-3,357628839857295E-004	1,000000000000000E+000
1,1190596E-001	-2,178230963596497E-004	1,000000000000000E+000
1,2791599E-001	-1,419554588973455E-004	1,000000000000000E+000
1,4380835E-001	-8,046762187734159E-005	1,000000000000000E+000
1,5983014E-001	-3,464347258119548E-005	1,000000000000000E+000
1,7584981E-001	3,412474529789439E-006	1,000000000000000E+000
1,9189285E-001	3,236949953041115E-005	1,000000000000000E+000
2,0779997E-001	5,111844718816389E-005	1,000000000000000E+000
2,2380586E-001	7,636715469747882E-005	1,000000000000000E+000
2,3980427E-001	1,083270000363026E-004	1,000000000000000E+000
2,5584626E-001	1,422564687500259E-004	1,000000000000000E+000
2,7181974E-001	1,839718966653967E-004	1,000000000000000E+000
2,8793979E-001	2,298098353380913E-004	1,000000000000000E+000
3,0382138E-001	2,842949247792346E-004	1,000000000000000E+000
3,1990051E-001	3,470168057427567E-004	1,000000000000000E+000
3,3586192E-001	4,220032925899547E-004	1,000000000000000E+000
3,5179865E-001	4,718039372061536E-004	1,000000000000000E+000
3,6783642E-001	4,995575785284008E-004	1,000000000000000E+000
3,8387519E-001	5,198549626373936E-004	1,000000000000000E+000
3,9986247E-001	5,373355433795669E-004	1,000000000000000E+000
4,1585401E-001	5,443614968096717E-004	1,000000000000000E+000
4,3185243E-001	5,924743195062383E-004	1,000000000000000E+000
4,4788694E-001	7,640148475509109E-004	1,000000000000000E+000
4,6391296E-001	1,183380487125763E-003	1,000000000000000E+000
4,7989553E-001	2,010223900880412E-003	1,000000000000000E+000
4,9585366E-001	3,844739056045550E-003	1,000000000000000E+000
5,1185530E-001	6,586342788992505E-003	1,000000000000000E+000
5,2778995E-001	9,862471982409582E-003	1,000000000000000E+000
5,4387152E-001	1,565026068497077E-002	1,000000000000000E+000
5,5993438E-001	3,063780429420349E-002	1,000000000000000E+000
5,7591593E-001	7,202838573873027E-002	1,000000000000000E+000
5,9207892E-001	1,592808237516843E-001	1,000000000000000E+000
6,0810411E-001	3,070340474032833E-001	1,000000000000000E+000
6,2405241E-001	5,306606376311356E-001	1,000000000000000E+000
6,3996917E-001	8,561377144437703E-001	1,000000000000000E+000
6,5621066E-001	1,288236972772418E+000	1,000000000000000E+000
6,7211014E-001	1,839171588891279E+000	1,000000000000000E+000
6,8808019E-001	2,493787816508160E+000	1,000000000000000E+000
7,0409989E-001	3,247897066327980E+000	1,000000000000000E+000
7,2012693E-001	4,081493403162831E+000	1,000000000000000E+000
7,3614442E-001	4,998035303724578E+000	1,000000000000000E+000
7,5220233E-001	5,967364618803913E+000	1,000000000000000E+000
7,6812440E-001	6,990248623889045E+000	1,000000000000000E+000
7,8413129E-001	8,055209267571939E+000	1,000000000000000E+000
8,0009151E-001	9,167807252701692E+000	1,000000000000000E+000
8,1608289E-001	1,030627043929825E+001	1,000000000000000E+000
8,3215213E-001	1,148121750172304E+001	1,000000000000000E+000
8,4821004E-001	1,266328120488424E+001	1,000000000000000E+000
8,6416918E-001	1,384986715170800E+001	1,000000000000000E+000
8,8019174E-001	1,505143788878274E+001	1,000000000000000E+000
8,9616287E-001	1,628431112777076E+001	1,000000000000000E+000
9,1222715E-001	1,755786556356884E+001	1,000000000000000E+000
9,2814171E-001	1,884392510384930E+001	1,000000000000000E+000
9,4417202E-001	2,016067508126604E+001	1,000000000000000E+000
9,6017796E-001	2,151437160879578E+001	1,000000000000000E+000
9,7620922E-001	2,286782198819981E+001	1,000000000000000E+000
9,9218225E-001	2,425919449315870E+001	1,000000000000000E+000
9,9326211E-001	2,422891764900308E+001	1,000000000000000E+000
9,7733688E-001	2,260499302735400E+001	1,000000000000000E+000
9,6129173E-001	2,109877606259997E+001	1,000000000000000E+000
9,4525492E-001	1,957711804810208E+001	1,000000000000000E+000
9,2930448E-001	1,822298192937347E+001	1,000000000000000E+000
9,1330594E-001	1,691309601541559E+001	1,000000000000000E+000
8,9727247E-001	1,559754442127920E+001	1,000000000000000E+000
8,8120967E-001	1,435263281882010E+001	1,000000000000000E+000
8,6522675E-001	1,312462638903096E+001	1,000000000000000E+000
8,4929734E-001	1,193796422144995E+001	1,000000000000000E+000
8,3328187E-001	1,078187350114455E+001	1,000000000000000E+000
8,1727922E-001	9,664072774502685E+000	1,000000000000000E+000
8,0130905E-001	8,564312184731207E+000	1,000000000000000E+000
7,8525782E-001	7,518026681038222E+000	1,000000000000000E+000
7,6923609E-001	6,516787969065899E+000	1,000000000000000E+000
7,5327909E-001	5,542297805754494E+000	1,000000000000000E+000
7,3726052E-001	4,641805695143759E+000	1,000000000000000E+000
7,2118664E-001	3,798425651157523E+000	1,000000000000000E+000
7,0519251E-001	3,033679661533185E+000	1,000000000000000E+000
6,8920577E-001	2,348133317467308E+000	1,000000000000000E+000
6,7322987E-001	1,748810588674985E+000	1,000000000000000E+000
6,5726197E-001	1,244821819546473E+000	1,000000000000000E+000
6,4122951E-001	8,403119671405559E-001	1,000000000000000E+000
6,2523532E-001	5,309230155330504E-001	1,000000000000000E+000
6,0902661E-001	3,138348189248061E-001	1,000000000000000E+000
5,9311414E-001	1,703593387266369E-001	1,000000000000000E+000
5,7707113E-001	8,211355138033682E-002	1,000000000000000E+000
5,6093150E-001	3,441406456624796E-002	1,000000000000000E+000
5,4494148E-001	1,244476102023276E-002	1,000000000000000E+000
5,2883267E-001	3,542866748628297E-003	1,000000000000000E+000
5,1282471E-001	3,943348836632108E-004	1,000000000000000E+000
4,9677950E-001	-8,061048663261594E-004	1,000000000000000E+000
4,8079172E-001	-1,847163121843735E-003	1,000000000000000E+000
4,6482405E-001	-4,408907525162438E-003	1,000000000000000E+000
4,4883093E-001	-9,804703269294782E-003	1,000000000000000E+000
4,3271148E-001	-1,055121619013865E-002	1,000000000000000E+000
4,1671300E-001	-5,416481272589898E-003	1,000000000000000E+000
4,0063712E-001	-2,907218475309635E-003	1,000000000000000E+000
3,8465878E-001	-2,022379533040056E-003	1,000000000000000E+000
3,6862108E-001	-1,641622769182796E-003	1,000000000000000E+000
3,5255042E-001	-1,439025628036579E-003	1,000000000000000E+000
3,3659768E-001	-1,271265925641359E-003	1,000000000000000E+000
3,2058117E-001	-1,158032666357518E-003	1,000000000000000E+000
3,0461353E-001	-1,062200035642629E-003	1,000000000000000E+000
2,8867880E-001	-9,818857845748270E-004	1,000000000000000E+000
2,7270690E-001	-9,130274509128646E-004	1,000000000000000E+000
2,5662878E-001	-8,584233000297078E-004	1,000000000000000E+000
2,4065481E-001	-8,072383963669771E-004	1,000000000000000E+000
2,2464149E-001	-7,683782983729862E-004	1,000000000000000E+000
2,0864941E-001	-7,339820584757149E-004	1,000000000000000E+000
1,9261900E-001	-7,079100463767756E-004	1,000000000000000E+000
1,7662176E-001	-6,868915801463045E-004	1,000000000000000E+000
1,6066049E-001	-6,718006525735787E-004	1,000000000000000E+000
1,4465567E-001	-6,580194620218402E-004	1,000000000000000E+000
1,2865962E-001	-6,536020134862283E-004	1,000000000000000E+000
1,1266305E-001	-6,512177594835879E-004	1,000000000000000E+000
9,6669920E-002	-6,655694029474510E-004	1,000000000000000E+000
8,0631129E-002	-6,959507901886652E-004	1,000000000000000E+000
6,4639062E-002	-7,245736101851715E-004	1,000000000000000E+000
4,8607703E-002	-7,336793149289693E-004	1,000000000000000E+000
3,2660231E-002	-7,509001169804545E-004	1,000000000000000E+000
1,6656483E-002	-7,670798874648247E-004	1,000000000000000E+000
6,0707750E-004	-7,915934971635345E-004	1,000000000000000E+000
1,3345483E-002	-3,812944756458377E-004	1,000000000000000E+000
2,9352665E-002	-2,245070643028343E-004	1,000000000000000E+000
4,5333046E-002	-1,178316891269953E-004	1,000000000000000E+000
6,1385639E-002	-1,554058005123312E-005	1,000000000000000E+000
7,7359654E-002	7,377491974402538E-005	1,000000000000000E+000
9,3392074E-002	1,491812251588720E-004	1,000000000000000E+000
1,0933104E-001	2,084685090235959E-004	1,000000000000000E+000
1,2535392E-001	2,619031494280073E-004	1,000000000000000E+000
1,4134917E-001	3,130280149375546E-004	1,000000000000000E+000
1,5741239E-001	3,455698214872190E-004	1,000000000000000E+000
1,7338426E-001	3,590453162461123E-004	1,000000000000000E+000
1,8938908E-001	3,567736571013676E-004	1,000000000000000E+000
2,0535566E-001	3,267357734245734E-004	1,000000000000000E+000
2,2132528E-001	2,939849784176746E-004	1,000000000000000E+000
2,3729733E-001	2,765824977002656E-004	1,000000000000000E+000
2,5328514E-001	2,717157245475123E-004	1,000000000000000E+000
2,6930800E-001	2,915617943408242E-004	1,000000000000000E+000
2,8533831E-001	3,481144389722540E-004	1,000000000000000E+000
3,0132613E-001	4,207517307605636E-004	1,000000000000000E+000
3,1735533E-001	4,915907586208793E-004	1,000000000000000E+000
3,3333570E-001	5,450076404075596E-004	1,000000000000000E+000
3,4940532E-001	5,763599899292048E-004	1,000000000000000E+000
3,6536765E-001	5,795016589954221E-004	1,000000000000000E+000
3,8133106E-001	5,707703700849488E-004	1,000000000000000E+000
3,9733264E-001	5,644193548472436E-004	1,000000000000000E+000
4,1334492E-001	5,656403834589886E-004	1,000000000000000E+000
4,2931259E-001	6,196785338123392E-004	1,000000000000000E+000
4,4530994E-001	7,880249970696543E-004	1,000000000000000E+000
4,6135294E-001	1,173099290227209E-003	1,000000000000000E+000
4,6594763E-001	1,240377173720237E-003	1,000000000000000E+000