Folder: nife-mo-alkaline-oer-data/fig_4_nife_ceo2/Activity_2_CV

Note: README.md
# Raw Data and Plot Scripts for the Manuscript

This repository contains the raw data and plotting scripts for the figures in the following manuscript:

**Varghese, N. K., Mkrtchian, E., Singh, A., Savio, L., Boccia, M., Marzocchi, V., & Comite, A., NiFe on CeO2, TiO2 and ZrO2 Supports as Efficient Oxygen Evolution Reaction Catalysts in Alkaline Media. ACS Appl. Energy Mater. 2025; doi:10.1021/acsaem.4c03268**

Each folder corresponds to a specific figure in the paper, with the folder name matching the figure number/details. Inside each folder, you will find the raw data files and the Python scripts used to generate the plots for that figure.

The **XPS plots** were generated using a commercial software. The folder `fig_3_and_si_xps` contains only the raw XPS data.

If you use this data, please cite the above article.

## License

This project is licensed under the **GNU General Public License (GPL)**, which allows you to freely use, modify and distribute the code, provided that any derivative works are also licensed under GPL.

File: Fe100_Activity_2_CV_2_02_CV_C01.txt
Ewe/V	<I>/mA	cycle number
-3,2509532E-005	-8,955612778663635E-001	1,000000000000000E+000
1,2705079E-002	-8,568217773956624E-003	1,000000000000000E+000
2,5834482E-002	-4,539138565878439E-003	1,000000000000000E+000
3,8851332E-002	-2,943951863047931E-003	1,000000000000000E+000
5,1873486E-002	-2,131397318888350E-003	1,000000000000000E+000
6,4847864E-002	-1,607094771736759E-003	1,000000000000000E+000
7,7850908E-002	-1,301092948342544E-003	1,000000000000000E+000
9,0804055E-002	-1,077812604020137E-003	1,000000000000000E+000
1,0381240E-001	-8,710427400852594E-004	1,000000000000000E+000
1,1680376E-001	-7,248513695201058E-004	1,000000000000000E+000
1,2985672E-001	-5,255888649405172E-004	1,000000000000000E+000
1,4284809E-001	-3,620178167529978E-004	1,000000000000000E+000
1,5587981E-001	-2,134124320284283E-004	1,000000000000000E+000
1,6879579E-001	-2,961559325838359E-005	1,000000000000000E+000
1,8182430E-001	1,130409972558870E-004	1,000000000000000E+000
1,9493139E-001	2,088614416675066E-004	1,000000000000000E+000
2,0788877E-001	2,347313889736139E-004	1,000000000000000E+000
2,2084831E-001	1,985327946350242E-004	1,000000000000000E+000
2,3384391E-001	1,049217460805604E-004	1,000000000000000E+000
2,4681830E-001	3,435094921047282E-005	1,000000000000000E+000
2,5980330E-001	-2,208782145988878E-005	1,000000000000000E+000
2,7279148E-001	-3,450926572841101E-005	1,000000000000000E+000
2,8572017E-001	-5,032617124560283E-005	1,000000000000000E+000
2,9873705E-001	-8,333011504453147E-005	1,000000000000000E+000
3,1172946E-001	-5,922977121488758E-005	1,000000000000000E+000
3,2467198E-001	-5,224137695777203E-005	1,000000000000000E+000
3,3773556E-001	-3,561756896631405E-005	1,000000000000000E+000
3,5070950E-001	1,674757456988555E-006	1,000000000000000E+000
3,6373737E-001	-2,027294255215973E-005	1,000000000000000E+000
3,7665018E-001	1,037846865460803E-005	1,000000000000000E+000
3,8969356E-001	3,516599850800486E-005	1,000000000000000E+000
4,0270406E-001	8,840519146614435E-005	1,000000000000000E+000
4,1576016E-001	1,688762580017570E-004	1,000000000000000E+000
4,2873457E-001	2,597050968779066E-004	1,000000000000000E+000
4,4169620E-001	4,051501115107073E-004	1,000000000000000E+000
4,5474917E-001	6,674299818690832E-004	1,000000000000000E+000
4,6775746E-001	1,080972006691442E-003	1,000000000000000E+000
4,8072502E-001	1,712247683178864E-003	1,000000000000000E+000
4,9379861E-001	2,982812628660514E-003	1,000000000000000E+000
5,0684309E-001	6,071189113108874E-003	1,000000000000000E+000
5,1995754E-001	1,318488312729948E-002	1,000000000000000E+000
5,3295112E-001	2,211763961290791E-002	1,000000000000000E+000
5,4592216E-001	3,070794424623866E-002	1,000000000000000E+000
5,5888498E-001	4,142927506076932E-002	1,000000000000000E+000
5,7192838E-001	6,752465516930684E-002	1,000000000000000E+000
5,8500689E-001	1,150217632976387E-001	1,000000000000000E+000
5,9802788E-001	1,816226314054274E-001	1,000000000000000E+000
6,1098665E-001	2,695168539792200E-001	1,000000000000000E+000
6,2401915E-001	3,778407566118447E-001	1,000000000000000E+000
6,3703179E-001	5,076556116460775E-001	1,000000000000000E+000
6,4999336E-001	6,607243420045121E-001	1,000000000000000E+000
6,6306549E-001	8,288645521144193E-001	1,000000000000000E+000
6,7609954E-001	1,026331801625311E+000	1,000000000000000E+000
6,8921703E-001	1,238684208037295E+000	1,000000000000000E+000
7,0218402E-001	1,475506390539962E+000	1,000000000000000E+000
7,1521461E-001	1,725450667698365E+000	1,000000000000000E+000
7,2821236E-001	1,992711721313384E+000	1,000000000000000E+000
7,4123508E-001	2,277615560537056E+000	1,000000000000000E+000
7,5423968E-001	2,565116877036158E+000	1,000000000000000E+000
7,6725543E-001	2,863455744253265E+000	1,000000000000000E+000
7,8019583E-001	3,167291202546544E+000	1,000000000000000E+000
7,9321265E-001	3,495445053897740E+000	1,000000000000000E+000
8,0623376E-001	3,814174021182424E+000	1,000000000000000E+000
8,1919223E-001	4,157397119298807E+000	1,000000000000000E+000
8,3215910E-001	4,505557438616307E+000	1,000000000000000E+000
8,4522277E-001	4,859894248093076E+000	1,000000000000000E+000
8,5820663E-001	5,222669080507988E+000	1,000000000000000E+000
8,7117463E-001	5,567963241010418E+000	1,000000000000000E+000
8,8418841E-001	5,950406076990559E+000	1,000000000000000E+000
8,9719677E-001	6,320756239347702E+000	1,000000000000000E+000
9,1020507E-001	6,709034138120501E+000	1,000000000000000E+000
9,2318904E-001	7,073347366112941E+000	1,000000000000000E+000
9,3626469E-001	7,455226728829473E+000	1,000000000000000E+000
9,4914949E-001	7,827819569919114E+000	1,000000000000000E+000
9,6223313E-001	8,178700763554787E+000	1,000000000000000E+000
9,7522664E-001	8,572964724634858E+000	1,000000000000000E+000
9,8817557E-001	8,925654233380527E+000	1,000000000000000E+000
9,9996632E-001	9,236280459983677E+000	1,000000000000000E+000
9,8734623E-001	8,701502831479619E+000	1,000000000000000E+000
9,7429007E-001	8,206757672114151E+000	1,000000000000000E+000
9,6134025E-001	7,736104671917218E+000	1,000000000000000E+000
9,4831371E-001	7,315035480558208E+000	1,000000000000000E+000
9,3531179E-001	6,874133892205279E+000	1,000000000000000E+000
9,2233539E-001	6,489767004235240E+000	1,000000000000000E+000
9,0931314E-001	6,111216039918443E+000	1,000000000000000E+000
8,9632487E-001	5,713652310086218E+000	1,000000000000000E+000
8,8326991E-001	5,364424818024332E+000	1,000000000000000E+000
8,7028170E-001	5,001616065790941E+000	1,000000000000000E+000
8,5730630E-001	4,661686864603407E+000	1,000000000000000E+000
8,4427035E-001	4,336797816243838E+000	1,000000000000000E+000
8,3129805E-001	4,002615945679802E+000	1,000000000000000E+000
8,1828761E-001	3,695965873782868E+000	1,000000000000000E+000
8,0529833E-001	3,397418499203260E+000	1,000000000000000E+000
7,9232180E-001	3,111331905755730E+000	1,000000000000000E+000
7,7931136E-001	2,830928921378522E+000	1,000000000000000E+000
7,6633906E-001	2,557485851841442E+000	1,000000000000000E+000
7,5336158E-001	2,287562688107251E+000	1,000000000000000E+000
7,4027950E-001	2,033105771680432E+000	1,000000000000000E+000
7,2730339E-001	1,793647720362337E+000	1,000000000000000E+000
7,1431100E-001	1,564754738829303E+000	1,000000000000000E+000
7,0132285E-001	1,351693648405693E+000	1,000000000000000E+000
6,8832397E-001	1,144190055983410E+000	1,000000000000000E+000
6,7533904E-001	9,522343273017686E-001	1,000000000000000E+000
6,6234976E-001	7,779000202054451E-001	1,000000000000000E+000
6,4928299E-001	6,265163955124522E-001	1,000000000000000E+000
6,3629484E-001	4,890110694007115E-001	1,000000000000000E+000
6,2311339E-001	3,643523193705751E-001	1,000000000000000E+000
6,1007851E-001	2,635658417686884E-001	1,000000000000000E+000
5,9711480E-001	1,797762461547272E-001	1,000000000000000E+000
5,8417964E-001	1,137867713444222E-001	1,000000000000000E+000
5,7110548E-001	6,688740682131411E-002	1,000000000000000E+000
5,5790281E-001	3,531882174465126E-002	1,000000000000000E+000
5,4500699E-001	1,673253426814558E-002	1,000000000000000E+000
5,3192329E-001	6,899068811924175E-003	1,000000000000000E+000
5,1871407E-001	2,197823066037490E-003	1,000000000000000E+000
5,0578016E-001	1,880205678742161E-004	1,000000000000000E+000
4,9270922E-001	-8,148703252660525E-004	1,000000000000000E+000
4,7977409E-001	-1,573227888785989E-003	1,000000000000000E+000
4,6672755E-001	-2,665744450603531E-003	1,000000000000000E+000
4,5373213E-001	-5,570625496611470E-003	1,000000000000000E+000
4,4063336E-001	-1,389674347407732E-002	1,000000000000000E+000
4,2768335E-001	-1,900694096556499E-002	1,000000000000000E+000
4,1466439E-001	-1,113118717257912E-002	1,000000000000000E+000
4,0161461E-001	-5,156820235088108E-003	1,000000000000000E+000
3,8848504E-001	-3,062753556728387E-003	1,000000000000000E+000
3,7548754E-001	-2,268366052367480E-003	1,000000000000000E+000
3,6243242E-001	-1,861995240964330E-003	1,000000000000000E+000
3,4944743E-001	-1,657406532314127E-003	1,000000000000000E+000
3,3646032E-001	-1,538918793111429E-003	1,000000000000000E+000
3,2340181E-001	-1,459404571439818E-003	1,000000000000000E+000
3,1042346E-001	-1,351284577385595E-003	1,000000000000000E+000
2,9750213E-001	-1,236818940827495E-003	1,000000000000000E+000
2,8446615E-001	-1,067618168091278E-003	1,000000000000000E+000
2,7148649E-001	-8,750056295369624E-004	1,000000000000000E+000
2,5847992E-001	-6,627722877891986E-004	1,000000000000000E+000
2,4555048E-001	-4,861679734794958E-004	1,000000000000000E+000
2,3256125E-001	-3,268176174560694E-004	1,000000000000000E+000
2,1951784E-001	-2,614516745285136E-004	1,000000000000000E+000
2,0655303E-001	-3,026758454008236E-004	1,000000000000000E+000
1,9355175E-001	-4,426914259578231E-004	1,000000000000000E+000
1,8050766E-001	-6,240916525380568E-004	1,000000000000000E+000
1,6749187E-001	-8,119151727499704E-004	1,000000000000000E+000
1,5441553E-001	-9,772862669743376E-004	1,000000000000000E+000
1,4142738E-001	-1,057094579907766E-003	1,000000000000000E+000
1,2848485E-001	-1,094539666155470E-003	1,000000000000000E+000
1,1543402E-001	-1,057461979742219E-003	1,000000000000000E+000
1,0250317E-001	-9,763054592013438E-004	1,000000000000000E+000
8,9499064E-002	-8,312293540255061E-004	1,000000000000000E+000
7,6457798E-002	-6,940484748397736E-004	1,000000000000000E+000
6,3508913E-002	-5,273812719363436E-004	1,000000000000000E+000
5,0562140E-002	-4,116886879788869E-004	1,000000000000000E+000
3,7524056E-002	-3,900203146102118E-004	1,000000000000000E+000
2,4536937E-002	-4,829396981566427E-004	1,000000000000000E+000
1,1515843E-002	-7,276696339881114E-004	1,000000000000000E+000
-2,0452439E-004	-9,228381275213065E-004	1,000000000000000E+000

File: Ni10Fe90_Activity_2_CV2_02_CV_C01.txt
Ewe/V	<I>/mA	cycle number
2,6746525E-004	-4,480707943439484E-001	1,000000000000000E+000
1,2982756E-002	-8,272888908524886E-003	1,000000000000000E+000
2,6150385E-002	-4,125567123233424E-003	1,000000000000000E+000
3,9175730E-002	-2,633705111223128E-003	1,000000000000000E+000
5,2213814E-002	-1,808357860585082E-003	1,000000000000000E+000
6,5209426E-002	-1,308278751103792E-003	1,000000000000000E+000
7,8165747E-002	-9,445544764649129E-004	1,000000000000000E+000
9,1175169E-002	-7,057835144083403E-004	1,000000000000000E+000
1,0413150E-001	-5,276955975305093E-004	1,000000000000000E+000
1,1710692E-001	-4,072079996551257E-004	1,000000000000000E+000
1,3016945E-001	-2,944180814592632E-004	1,000000000000000E+000
1,4315550E-001	-1,800180106614835E-004	1,000000000000000E+000
1,5613836E-001	-7,625738840317175E-005	1,000000000000000E+000
1,6918175E-001	3,503150571373068E-005	1,000000000000000E+000
1,8214977E-001	1,352977748601170E-004	1,000000000000000E+000
1,9511989E-001	2,320947732212314E-004	1,000000000000000E+000
2,0819619E-001	3,119433602425648E-004	1,000000000000000E+000
2,2111535E-001	3,841125500087120E-004	1,000000000000000E+000
2,3411947E-001	4,474255453117155E-004	1,000000000000000E+000
2,4717905E-001	5,047009951456511E-004	1,000000000000000E+000
2,6016590E-001	5,462237759006918E-004	1,000000000000000E+000
2,7311161E-001	5,691405308105944E-004	1,000000000000000E+000
2,8612739E-001	6,020630733766649E-004	1,000000000000000E+000
2,9912832E-001	6,328951148466405E-004	1,000000000000000E+000
3,1213650E-001	6,573580961143160E-004	1,000000000000000E+000
3,2510468E-001	7,012952367789742E-004	1,000000000000000E+000
3,3812472E-001	7,329061423380703E-004	1,000000000000000E+000
3,5119894E-001	7,806115568128602E-004	1,000000000000000E+000
3,6409259E-001	8,251580323565546E-004	1,000000000000000E+000
3,7713489E-001	8,589575043024822E-004	1,000000000000000E+000
3,9014432E-001	8,965655542521917E-004	1,000000000000000E+000
4,0314737E-001	9,352902762284065E-004	1,000000000000000E+000
4,1615045E-001	9,874537030216783E-004	1,000000000000000E+000
4,2916635E-001	1,093984954340788E-003	1,000000000000000E+000
4,4210127E-001	1,339411706444036E-003	1,000000000000000E+000
4,5510539E-001	1,693544857188912E-003	1,000000000000000E+000
4,6808612E-001	2,128071907911422E-003	1,000000000000000E+000
4,8107538E-001	2,976339831273808E-003	1,000000000000000E+000
4,9405503E-001	5,315485281734866E-003	1,000000000000000E+000
5,0720465E-001	1,228587661917074E-002	1,000000000000000E+000
5,2015245E-001	2,369905439524352E-002	1,000000000000000E+000
5,3323090E-001	3,023444053050683E-002	1,000000000000000E+000
5,4621488E-001	3,170826396130877E-002	1,000000000000000E+000
5,5921686E-001	3,432815583066945E-002	1,000000000000000E+000
5,7219648E-001	5,029807286231411E-002	1,000000000000000E+000
5,8521444E-001	8,535445270512865E-002	1,000000000000000E+000
5,9830666E-001	1,426344397604522E-001	1,000000000000000E+000
6,1127365E-001	2,256769380929585E-001	1,000000000000000E+000
6,2429678E-001	3,391714034973727E-001	1,000000000000000E+000
6,3726163E-001	4,892382848450332E-001	1,000000000000000E+000
6,5035498E-001	6,791897369105198E-001	1,000000000000000E+000
6,6334629E-001	9,080867634118954E-001	1,000000000000000E+000
6,7649138E-001	1,184243293021360E+000	1,000000000000000E+000
6,8946815E-001	1,505040249899196E+000	1,000000000000000E+000
7,0251369E-001	1,854088383027754E+000	1,000000000000000E+000
7,1544564E-001	2,244231057308959E+000	1,000000000000000E+000
7,2852623E-001	2,661901048403621E+000	1,000000000000000E+000
7,4153239E-001	3,115988128360286E+000	1,000000000000000E+000
7,5449830E-001	3,581831584002430E+000	1,000000000000000E+000
7,6747048E-001	4,078837307605077E+000	1,000000000000000E+000
7,8050750E-001	4,592203138941048E+000	1,000000000000000E+000
7,9347235E-001	5,111948449306350E+000	1,000000000000000E+000
8,0651468E-001	5,638011778090288E+000	1,000000000000000E+000
8,1943697E-001	6,194986564299398E+000	1,000000000000000E+000
8,3245498E-001	6,774217642421348E+000	1,000000000000000E+000
8,4552276E-001	7,335886210405917E+000	1,000000000000000E+000
8,5851723E-001	7,920629237109040E+000	1,000000000000000E+000
8,7150651E-001	8,514730516812705E+000	1,000000000000000E+000
8,8445330E-001	9,117590750561263E+000	1,000000000000000E+000
8,9752847E-001	9,722640961408622E+000	1,000000000000000E+000
9,1044807E-001	1,035764954711163E+001	1,000000000000000E+000
9,2368233E-001	1,099157912390574E+001	1,000000000000000E+000
9,3667042E-001	1,165078733391771E+001	1,000000000000000E+000
9,4966817E-001	1,230051708809374E+001	1,000000000000000E+000
9,6271783E-001	1,292624749402071E+001	1,000000000000000E+000
9,7568578E-001	1,355559907051125E+001	1,000000000000000E+000
9,8865390E-001	1,419091197192807E+001	1,000000000000000E+000
9,9921370E-001	1,460870810363298E+001	1,000000000000000E+000
9,8627651E-001	1,373652684648025E+001	1,000000000000000E+000
9,7322035E-001	1,291799546058488E+001	1,000000000000000E+000
9,6030658E-001	1,215738557404129E+001	1,000000000000000E+000
9,4728559E-001	1,141719866862312E+001	1,000000000000000E+000
9,3428236E-001	1,069629297295668E+001	1,000000000000000E+000
9,2123055E-001	1,004085510036569E+001	1,000000000000000E+000
9,0819246E-001	9,395229380687631E+000	1,000000000000000E+000
8,9527428E-001	8,761361154096193E+000	1,000000000000000E+000
8,8224262E-001	8,141063716744066E+000	1,000000000000000E+000
8,6923742E-001	7,550776950964316E+000	1,000000000000000E+000
8,5632461E-001	6,993362195502613E+000	1,000000000000000E+000
8,4321326E-001	6,457276255027509E+000	1,000000000000000E+000
8,3020377E-001	5,927589993626931E+000	1,000000000000000E+000
8,1721354E-001	5,418103363576137E+000	1,000000000000000E+000
8,0424339E-001	4,925398727832466E+000	1,000000000000000E+000
7,9118413E-001	4,443118496715613E+000	1,000000000000000E+000
7,7819169E-001	3,979502087243574E+000	1,000000000000000E+000
7,6524490E-001	3,537182014781870E+000	1,000000000000000E+000
7,5216544E-001	3,107184102137879E+000	1,000000000000000E+000
7,3921126E-001	2,701327800480415E+000	1,000000000000000E+000
7,2621346E-001	2,321117152668993E+000	1,000000000000000E+000
7,1321344E-001	1,957628931256608E+000	1,000000000000000E+000
7,0021474E-001	1,621654580881536E+000	1,000000000000000E+000
6,8719798E-001	1,321647525796680E+000	1,000000000000000E+000
6,7415035E-001	1,045720808436068E+000	1,000000000000000E+000
6,6118020E-001	8,034231457056791E-001	1,000000000000000E+000
6,4816225E-001	6,003975188616586E-001	1,000000000000000E+000
6,3509661E-001	4,338907133576706E-001	1,000000000000000E+000
6,2212962E-001	2,982473140645800E-001	1,000000000000000E+000
6,0910970E-001	1,950441661265492E-001	1,000000000000000E+000
5,9609491E-001	1,203141782956534E-001	1,000000000000000E+000
5,8308971E-001	6,974213319839051E-002	1,000000000000000E+000
5,6995612E-001	3,793710942513195E-002	1,000000000000000E+000
5,5696899E-001	1,991164360484199E-002	1,000000000000000E+000
5,4404879E-001	1,038076265560897E-002	1,000000000000000E+000
5,3097403E-001	5,689978235070080E-003	1,000000000000000E+000
5,1773465E-001	3,297447228525475E-003	1,000000000000000E+000
5,0475925E-001	2,040390814739664E-003	1,000000000000000E+000
4,9179769E-001	1,110274243454491E-003	1,000000000000000E+000
4,7881800E-001	4,888303936381624E-005	1,000000000000000E+000
4,6581608E-001	-1,801999217682537E-003	1,000000000000000E+000
4,5282564E-001	-6,664674467438333E-003	1,000000000000000E+000
4,3972388E-001	-1,528851914324095E-002	1,000000000000000E+000
4,2670068E-001	-1,873138176526464E-002	1,000000000000000E+000
4,1373050E-001	-1,131484933332654E-002	1,000000000000000E+000
4,0066272E-001	-5,054164695808988E-003	1,000000000000000E+000
3,8746646E-001	-3,140888757252158E-003	1,000000000000000E+000
3,7449312E-001	-2,498541202293460E-003	1,000000000000000E+000
3,6146033E-001	-2,197672184409548E-003	1,000000000000000E+000
3,4843287E-001	-2,000733346848194E-003	1,000000000000000E+000
3,3546278E-001	-1,839930885095887E-003	1,000000000000000E+000
3,2245973E-001	-1,673852680610010E-003	1,000000000000000E+000
3,0956176E-001	-1,506466680463940E-003	1,000000000000000E+000
2,9648337E-001	-1,330610472956949E-003	1,000000000000000E+000
2,8358665E-001	-1,159423871599164E-003	1,000000000000000E+000
2,7054945E-001	-1,019977176050624E-003	1,000000000000000E+000
2,5755596E-001	-9,274473035755740E-004	1,000000000000000E+000
2,4450621E-001	-8,770063967138983E-004	1,000000000000000E+000
2,3152332E-001	-8,885807288532659E-004	1,000000000000000E+000
2,1850647E-001	-9,449357853317675E-004	1,000000000000000E+000
2,0551403E-001	-1,034348142758531E-003	1,000000000000000E+000
1,9250569E-001	-1,124256632943869E-003	1,000000000000000E+000
1,7953768E-001	-1,190134876347226E-003	1,000000000000000E+000
1,6643344E-001	-1,227984319537517E-003	1,000000000000000E+000
1,5346047E-001	-1,240192186482346E-003	1,000000000000000E+000
1,4047547E-001	-1,315754605003470E-003	1,000000000000000E+000
1,2749153E-001	-1,317219684437215E-003	1,000000000000000E+000
1,1448634E-001	-1,307855280834359E-003	1,000000000000000E+000
1,0149309E-001	-1,266042725554467E-003	1,000000000000000E+000
8,8480271E-002	-1,280578452507864E-003	1,000000000000000E+000
7,5565353E-002	-1,263938456969559E-003	1,000000000000000E+000
6,2483732E-002	-1,275809233928471E-003	1,000000000000000E+000
4,9533777E-002	-1,273309715811400E-003	1,000000000000000E+000
3,6493570E-002	-1,276631048977073E-003	1,000000000000000E+000
2,3497958E-002	-1,264175204239756E-003	1,000000000000000E+000
1,0527830E-002	-1,224751196090033E-003	1,000000000000000E+000
-7,6564480E-005	-1,190880917277481E-003	1,000000000000000E+000