Folder: nife-mo-alkaline-oer-data/fig_4_nife_ceo2/EIS_1_nyquist (part 3)

File: Ni75Fe25_OCP+EIS_1_02_PEIS_C01.txt
freq/Hz	Re(Z)/Ohm	-Im(Z)/Ohm	|Z|/Ohm	Phase(Z)/deg	Re(C)/nF	Im(C)/nF	|C|/nF
1,9999814E+005	7,7133498E+000	-4,2345771E-001	7,7249646E+000	3,1423454E+000	-5,6469216E+000	1,0285944E+002	1,0301434E+002
1,5885727E+005	7,3544927E+000	-2,4961630E-002	7,3545351E+000	1,9446488E-001	-4,6235678E-001	1,3622453E+002	1,3622531E+002
1,2618765E+005	7,2213793E+000	2,2812685E-001	7,2249818E+000	-1,8093995E+000	5,5119705E+000	1,7448172E+002	1,7456876E+002
1,0022640E+005	7,1866956E+000	3,9812505E-001	7,1977148E+000	-3,1708026E+000	1,2203032E+001	2,2028148E+002	2,2061923E+002
7,9609563E+004	7,1839304E+000	5,3787488E-001	7,2040381E+000	-4,2818575E+000	2,0719746E+001	2,7673560E+002	2,7751016E+002
6,3233004E+004	7,1936679E+000	6,7783630E-001	7,2255325E+000	-5,3829045E+000	3,2678444E+001	3,4680627E+002	3,4834247E+002
5,0224539E+004	7,2216320E+000	8,3791906E-001	7,2700810E+000	-6,6183801E+000	5,0237453E+001	4,3297324E+002	4,3587799E+002
3,9897566E+004	7,2917209E+000	1,0148928E+000	7,3620105E+000	-7,9237657E+000	7,4696648E+001	5,3667444E+002	5,4184778E+002
3,1686090E+004	7,3497405E+000	1,2525890E+000	7,4557137E+000	-9,6717815E+000	1,1318313E+002	6,6411768E+002	6,7369336E+002
2,5172580E+004	7,4234452E+000	1,5198073E+000	7,5774240E+000	-1,1570319E+001	1,6735466E+002	8,1743787E+002	8,3439331E+002
1,9995176E+004	7,5388412E+000	1,8527911E+000	7,7631798E+000	-1,3807698E+001	2,4470462E+002	9,9568097E+002	1,0253102E+003
1,5884798E+004	7,6797051E+000	2,2619019E+000	8,0058775E+000	-1,6411272E+001	3,5358539E+002	1,2005082E+003	1,2514961E+003
1,2618766E+004	7,8723679E+000	2,7514448E+000	8,3393421E+000	-1,9264860E+001	4,9900000E+002	1,4277267E+003	1,5124167E+003
1,0020785E+004	8,1338940E+000	3,3583572E+000	8,7999315E+000	-2,2434961E+001	6,8878967E+002	1,6682391E+003	1,8048416E+003
7,9597607E+003	8,4756355E+000	4,0666223E+000	9,4007349E+000	-2,5631760E+001	9,2009009E+002	1,9176476E+003	2,1269551E+003
6,3238188E+003	8,9458437E+000	4,8897963E+000	1,0195010E+001	-2,8661007E+001	1,1840121E+003	2,1661406E+003	2,4686130E+003
5,0216069E+003	9,5523272E+000	5,8328075E+000	1,1192346E+001	-3,1408922E+001	1,4757501E+003	2,4168206E+003	2,8317593E+003
3,9861731E+003	1,0419978E+001	6,8918757E+000	1,2492954E+001	-3,3481041E+001	1,7630763E+003	2,6656338E+003	3,1959414E+003
3,1669595E+003	1,1497169E+001	8,0356398E+000	1,4026988E+001	-3,4950596E+001	2,0524338E+003	2,9365652E+003	3,5827224E+003
2,5158047E+003	1,2864958E+001	9,2104998E+000	1,5822150E+001	-3,5600277E+001	2,3275305E+003	3,2510271E+003	3,9983215E+003
1,9980818E+003	1,4546218E+001	1,0301152E+001	1,7824314E+001	-3,5304871E+001	2,5826587E+003	3,6469622E+003	4,4688320E+003
1,5884750E+003	1,6491205E+001	1,1279345E+001	1,9979576E+001	-3,4370613E+001	2,8310730E+003	4,1392305E+003	5,0147983E+003
1,2604036E+003	1,8637197E+001	1,2137108E+001	2,2240829E+001	-3,3073395E+001	3,0983020E+003	4,7576133E+003	5,6775313E+003
1,0016024E+003	2,1215147E+001	1,2518933E+001	2,4633436E+001	-3,0544603E+001	3,2782502E+003	5,5554707E+003	6,4505952E+003
7,9525409E+002	2,3697783E+001	1,2660739E+001	2,6867809E+001	-2,8113735E+001	3,5100132E+003	6,5698794E+003	7,4487251E+003
6,3181964E+002	2,6251984E+001	1,2444014E+001	2,9052025E+001	-2,5361973E+001	3,7139375E+003	7,8349521E+003	8,6706289E+003
5,0208865E+002	2,8670721E+001	1,2010964E+001	3,1084940E+001	-2,2730169E+001	3,9401936E+003	9,4054209E+003	1,0197405E+004
3,9859698E+002	3,0870375E+001	1,1300712E+001	3,2873791E+001	-2,0106152E+001	4,1753452E+003	1,1405870E+004	1,2146085E+004
3,1672299E+002	3,2884766E+001	1,0342644E+001	3,4472858E+001	-1,7458973E+001	4,3733818E+003	1,3905310E+004	1,4576835E+004
2,5169135E+002	3,4388302E+001	9,2507343E+000	3,5610832E+001	-1,5056596E+001	4,6127910E+003	1,7147402E+004	1,7757006E+004
1,9980818E+002	3,5822136E+001	8,2361784E+000	3,6756767E+001	-1,2948339E+001	4,8557686E+003	2,1119502E+004	2,1670529E+004
1,5862943E+002	3,6996117E+001	7,2080336E+000	3,7691753E+001	-1,1024945E+001	5,0905020E+003	2,6127619E+004	2,6618896E+004
1,2600809E+002	3,7913044E+001	6,3009863E+000	3,8433075E+001	-9,4360676E+000	5,3879043E+003	3,2419033E+004	3,2863707E+004
1,0016024E+002	3,8856735E+001	5,4182048E+000	3,9232674E+001	-7,9381704E+000	5,5935103E+003	4,0113934E+004	4,0502039E+004
7,9516548E+001	3,9392368E+001	4,7245216E+000	3,9674675E+001	-6,8390989E+000	6,0074961E+003	5,0089645E+004	5,0448613E+004
6,3160763E+001	4,0026325E+001	4,2143397E+000	4,0247578E+001	-6,0104809E+000	6,5557578E+003	6,2264281E+004	6,2608457E+004
5,0208866E+001	4,0419643E+001	3,3644948E+000	4,0559429E+001	-4,7582798E+000	6,4829961E+003	7,7884055E+004	7,8153406E+004
3,9859695E+001	4,0889053E+001	3,0469627E+000	4,1002422E+001	-4,2616796E+000	7,2365967E+003	9,7112281E+004	9,7381539E+004
3,1672298E+001	4,1240341E+001	2,8550615E+000	4,1339050E+001	-3,9602580E+000	8,3952783E+003	1,2126677E+005	1,2155702E+005
2,5136747E+001	4,1189117E+001	1,9574606E+000	4,1235603E+001	-2,7208622E+000	7,2888589E+003	1,5337297E+005	1,5354606E+005
1,9980818E+001	4,1630138E+001	1,6201577E+000	4,1661652E+001	-2,2287068E+000	7,4351724E+003	1,9104766E+005	1,9119228E+005
1,5857577E+001	4,1857708E+001	2,4217491E+000	4,1927708E+001	-3,3112535E+000	1,3826446E+004	2,3897722E+005	2,3937686E+005
1,2600809E+001	4,2829876E+001	1,7480315E+000	4,2865532E+001	-2,3371367E+000	1,2015844E+004	2,9440969E+005	2,9465478E+005
1,0016025E+001	4,1954647E+001	9,5503533E-001	4,1965515E+001	-1,3040283E+000	8,6170791E+003	3,7854691E+005	3,7864497E+005
7,9557004E+000	4,3098766E+001	1,2024249E+000	4,3115536E+001	-1,5980970E+000	1,2939949E+004	4,6380878E+005	4,6398925E+005
6,3105812E+000	4,2002232E+001	1,1358345E+000	4,2017586E+001	-1,5490289E+000	1,6225684E+004	6,0001338E+005	6,0023275E+005
5,0144420E+000	4,2893177E+001	2,3275013E+000	4,2956280E+001	-3,1059799E+000	4,0034473E+004	7,3778938E+005	7,3887475E+005
3,9859698E+000	4,3283730E+001	1,4923215E+000	4,3309448E+001	-1,9746418E+000	3,1767480E+004	9,2139425E+005	9,2194175E+005
3,1655185E+000	4,3892754E+001	6,5685689E-001	4,3897667E+001	-8,5736972E-001	1,7138092E+004	1,1452101E+006	1,1453384E+006
2,5136747E+000	4,3684696E+001	1,2999911E+000	4,3704037E+001	-1,7045335E+000	4,3093234E+004	1,4480959E+006	1,4487369E+006
1,9970603E+000	4,3899181E+001	1,5475966E+000	4,3926453E+001	-2,0190363E+000	6,3919621E+004	1,8131473E+006	1,8142736E+006
1,5846856E+000	4,4279003E+001	1,1847024E-001	4,4279163E+001	-1,5329677E-001	6,0686113E+003	2,2681725E+006	2,2681805E+006
1,2596742E+000	4,4052402E+001	2,4770492E-001	4,4053101E+001	-3,2216850E-001	1,6126525E+004	2,8679963E+006	2,8680415E+006
1,0000639E+000	4,5167542E+001	1,1084732E-001	4,5167679E+001	-1,4061140E-001	8,6468301E+003	3,5234110E+006	3,5234215E+006
7,9882401E-001	5,1358967E+001	-3,1210995E-001	5,1359917E+001	3,4818384E-001	-2,3573637E+004	3,8791510E+006	3,8792228E+006
6,2907392E-001	5,3307743E+001	1,6691432E+000	5,3333870E+001	-1,7934284E+000	1,4845863E+005	4,7413565E+006	4,7436800E+006
4,9926502E-001	5,4206707E+001	-1,2929672E+000	5,4222126E+001	1,3663902E+000	-1,4019245E+005	5,8774505E+006	5,8791220E+006
3,9941201E-001	5,3538750E+001	-8,2529798E-002	5,3538815E+001	8,8321179E-002	-1,1472446E+004	7,4426865E+006	7,4426955E+006
3,1952962E-001	5,1641270E+001	2,8231981E+000	5,1718384E+001	-3,1292119E+000	5,2572713E+005	9,6164770E+006	9,6308370E+006
2,4963251E-001	5,0123573E+001	-1,2278080E-001	5,0123722E+001	1,4034928E-001	-3,1157750E+004	1,2719627E+007	1,2719665E+007
1,9970600E-001	5,3969624E+001	5,6921949E+000	5,4268970E+001	-6,0207467E+000	1,5403004E+006	1,4604115E+007	1,4685118E+007
1,5976481E-001	4,8873493E+001	-3,2895782E+000	4,8984077E+001	3,8506575E+000	-1,3657431E+006	2,0290958E+007	2,0336868E+007
1,2980890E-001	5,0795918E+001	-1,6177335E+000	5,0821671E+001	1,8241227E+000	-7,6793419E+005	2,4112740E+007	2,4124966E+007
9,9853002E-002	5,4973999E+001	5,1176867E+000	5,5211697E+001	-5,3184991E+000	2,6759028E+006	2,8744462E+007	2,8868746E+007
7,9882406E-002	4,8546665E+001	5,0552382E+000	4,8809162E+001	-5,9448709E+000	4,2277365E+006	4,0599972E+007	4,0819500E+007
5,9911802E-002	5,3047112E+001	3,1299744E+000	5,3139370E+001	-3,3767464E+000	2,9445290E+006	4,9904156E+007	4,9990948E+007
4,9926501E-002	4,8262978E+001	-6,6763598E-001	4,8267593E+001	7,9253888E-001	-9,1352169E+005	6,6037676E+007	6,6043996E+007
3,9941203E-002	5,4724228E+001	7,7242005E-001	5,4729679E+001	-8,0866325E-001	1,0275578E+006	7,2800240E+007	7,2807488E+007
2,9955901E-002	4,9565159E+001	4,7101269E+000	4,9788456E+001	-5,4284587E+000	1,0095157E+007	1,0623238E+008	1,0671098E+008
1,9970601E-002	5,6390156E+001	5,5985446E+000	5,6667393E+001	-5,6698766E+000	1,3894331E+007	1,3994773E+008	1,4063576E+008
9,9853007E-003	5,1362488E+001	-3,7991428E+000	5,1502804E+001	4,2303085E+000	-2,2828790E+007	3,0863370E+008	3,0947683E+008

File: Ni100_OCP+EIS_1_02_PEIS_C01.txt
freq/Hz	Re(Z)/Ohm	-Im(Z)/Ohm	|Z|/Ohm	Phase(Z)/deg	time/s	<Ewe>/V	<I>/mA	Cs/�F	Cp/�F	cycle number	I Range	|Ewe|/V	|I|/A	Ns	(Q-Qo)/mA.h	Re(Y)/Ohm-1	Im(Y)/Ohm-1	|Y|/Ohm-1	Phase(Y)/deg	Re(C)/nF	Im(C)/nF	|C|/nF	Phase(C)/deg	Re(M)	Im(M)	|M|	Phase(M)/deg	Re(Permittivity)	Im(Permittivity)	|Permittivity|	Phase(Permittivity)/deg	Re(Resistivity)/Ohm.cm	Im(Resistivity)/Ohm.cm	|Resistivity|/Ohm.cm	Phase(Resistivity)/deg	Re(Conductivity)/mS/cm	Im(Conductivity)/mS/cm	|Conductivity|/mS/cm
1,9999814E+005	6,7068796E+000	-5,6331205E-001	6,7304945E+000	4,8010149E+000	6,013900742153492E+002	6,9973588E-001	1,8735411E+000	-1,4126843E+000	-9,8957624E-003	1,000000000000000E+000	10	9,9063423E-003	1,4718595E-003	0	6,651602940619664E-004	1,4805619E-001	-1,2435267E-002	1,4857750E-001	-4,8010149E+000	-9,8957691E+000	1,1782047E+002	1,1823531E+002	-9,4801018E+001	0,0000000E+000	0,0000000E+000	0,0000000E+000	9,4801018E+001	0,0000000E+000	0,0000000E+000	0,0000000E+000	-9,4801018E+001	0,0000000E+000	0,0000000E+000	0,0000000E+000	4,8010149E+000	0,0000000E+000	0,0000000E+000	0,0000000E+000	-4,8010149E+000	1,1906154E+001	8,5198982E+001	6,651602940619664E-004
6,3233004E+004	6,2506948E+000	3,3935452E-001	6,2599001E+000	-3,1075764E+000	6,035010646089650E+002	6,9983220E-001	1,6121275E+000	7,4169044E+000	2,1796921E-002	1,000000000000000E+000	10	1,0395307E-002	1,6606187E-003	0	1,640828476367984E-003	1,5951206E-001	8,6600184E-003	1,5974696E-001	3,1075764E+000	2,1796907E+001	4,0148547E+002	4,0207672E+002	-8,6892426E+001	0,0000000E+000	0,0000000E+000	0,0000000E+000	8,6892426E+001	0,0000000E+000	0,0000000E+000	0,0000000E+000	-8,6892426E+001	0,0000000E+000	0,0000000E+000	0,0000000E+000	-3,1075764E+000	0,0000000E+000	0,0000000E+000	0,0000000E+000	3,1075764E+000	1,8419365E+001	8,6892426E+001	1,836126815029160E-004
1,9995176E+004	6,4348783E+000	9,7496378E-001	6,5083189E+000	-8,6154928E+000	6,056120711891999E+002	6,9985914E-001	1,5160192E+000	8,1640644E+000	1,8320854E-001	1,000000000000000E+000	10	1,0170775E-002	1,5627345E-003	0	2,534636395698497E-003	1,5191571E-001	2,3017110E-002	1,5364951E-001	8,6154928E+000	1,8320857E+002	1,2091986E+003	1,2229990E+003	-8,1384506E+001	0,0000000E+000	0,0000000E+000	0,0000000E+000	8,1384506E+001	0,0000000E+000	0,0000000E+000	0,0000000E+000	-8,1384506E+001	0,0000000E+000	0,0000000E+000	0,0000000E+000	-8,6154928E+000	0,0000000E+000	0,0000000E+000	0,0000000E+000	8,6154928E+000	6,6001205E+000	8,1384506E+001	1,752370825642718E-004
6,3238188E+003	6,9182754E+000	2,6320148E+000	7,4020290E+000	-2,0829004E+001	6,074628814637981E+002	6,9988382E-001	1,4790901E+000	9,5620804E+000	1,2090032E+000	1,000000000000000E+000	10	1,0586466E-002	1,4302114E-003	0	3,288195192999342E-003	1,2626886E-001	4,8038196E-002	1,3509808E-001	2,0829004E+001	1,2090031E+003	3,1778762E+003	3,4000862E+003	-6,9170998E+001	0,0000000E+000	0,0000000E+000	0,0000000E+000	6,9170998E+001	0,0000000E+000	0,0000000E+000	0,0000000E+000	-6,9170998E+001	0,0000000E+000	0,0000000E+000	0,0000000E+000	-2,0829004E+001	0,0000000E+000	0,0000000E+000	0,0000000E+000	2,0829004E+001	2,6285093E+000	6,9170998E+001	1,582605073391528E-004
1,9980818E+003	8,7135715E+000	7,0629935E+000	1,1216604E+001	-3,9027321E+001	6,097915322410845E+002	6,9993788E-001	1,4439873E+000	1,1277636E+001	4,4717021E+000	1,000000000000000E+000	10	1,0464674E-002	9,3296275E-004	0	4,220217940783129E-003	6,9258556E-002	5,6139175E-002	8,9153543E-002	3,9027321E+001	4,4717026E+003	5,5167119E+003	7,1014248E+003	-5,0972679E+001	0,0000000E+000	0,0000000E+000	0,0000000E+000	5,0972679E+001	0,0000000E+000	0,0000000E+000	0,0000000E+000	-5,0972679E+001	0,0000000E+000	0,0000000E+000	0,0000000E+000	-3,9027321E+001	0,0000000E+000	0,0000000E+000	0,0000000E+000	3,9027321E+001	1,2336938E+000	5,0972687E+001	1,833265568879951E-004
6,3181964E+002	1,6205681E+001	1,6026693E+001	2,2792082E+001	-4,4681839E+001	6,121177383515605E+002	6,9994497E-001	1,4203428E+000	1,5717486E+001	7,7714658E+000	1,000000000000000E+000	10	1,0285721E-002	4,5128484E-004	0	5,130250474711181E-003	3,1196026E-002	3,0851476E-002	4,3874886E-002	4,4681839E+001	7,7714663E+003	7,8582583E+003	1,1052055E+004	-4,5318161E+001	0,0000000E+000	0,0000000E+000	0,0000000E+000	4,5318161E+001	0,0000000E+000	0,0000000E+000	0,0000000E+000	-4,5318161E+001	0,0000000E+000	0,0000000E+000	0,0000000E+000	-4,4681839E+001	0,0000000E+000	0,0000000E+000	0,0000000E+000	4,4681839E+001	1,0111681E+000	4,5318161E+001	1,803965046241768E-004
1,9980818E+002	3,5512154E+001	2,1619358E+001	4,1575348E+001	-3,1332537E+001	6,146945287673007E+002	6,9992685E-001	1,4019012E+000	3,6843769E+001	9,9627180E+000	1,000000000000000E+000	11	1,0283783E-002	2,4735290E-004	0	6,111286826954825E-003	2,0544956E-002	1,2507514E-002	2,4052715E-002	3,1332537E+001	9,9627168E+003	1,6364851E+004	1,9158916E+004	-5,8667465E+001	0,0000000E+000	0,0000000E+000	0,0000000E+000	5,8667465E+001	0,0000000E+000	0,0000000E+000	0,0000000E+000	-5,8667465E+001	0,0000000E+000	0,0000000E+000	0,0000000E+000	-3,1332537E+001	0,0000000E+000	0,0000000E+000	0,0000000E+000	3,1332537E+001	1,6426091E+000	5,8667465E+001	1,784471382877025E-004
6,3160763E+001	5,2970242E+001	1,4040313E+001	5,4799423E+001	-1,4845461E+001	6,170361522384774E+002	6,9992620E-001	1,3753096E+000	1,7947171E+002	1,1781419E+001	1,000000000000000E+000	11	1,0253553E-002	1,8711061E-004	0	6,996721914520358E-003	1,7639244E-002	4,6754652E-003	1,8248368E-002	1,4845461E+001	1,1781418E+004	4,4448055E+004	4,5982945E+004	-7,5154541E+001	0,0000000E+000	0,0000000E+000	0,0000000E+000	7,5154541E+001	0,0000000E+000	0,0000000E+000	0,0000000E+000	-7,5154541E+001	0,0000000E+000	0,0000000E+000	0,0000000E+000	-1,4845461E+001	0,0000000E+000	0,0000000E+000	0,0000000E+000	1,4845461E+001	3,7727251E+000	7,5154541E+001	1,797038452530722E-004
1,9980818E+001	5,9668762E+001	6,9586616E+000	6,0073158E+001	-6,6518726E+000	6,193405252013035E+002	6,9991869E-001	1,3718830E+000	1,1446722E+003	1,5359308E+001	1,000000000000000E+000	11	1,0246596E-002	1,7056863E-004	0	7,858080321747422E-003	1,6534312E-002	1,9282565E-003	1,6646370E-002	6,6518726E+000	1,5359303E+004	1,3170217E+005	1,3259477E+005	-8,3348129E+001	0,0000000E+000	0,0000000E+000	0,0000000E+000	8,3348129E+001	0,0000000E+000	0,0000000E+000	0,0000000E+000	-8,3348129E+001	0,0000000E+000	0,0000000E+000	0,0000000E+000	-6,6518726E+000	0,0000000E+000	0,0000000E+000	0,0000000E+000	6,6518726E+000	8,5747471E+000	8,3348129E+001	1,748634092178869E-004
6,3105812E+000	6,0046055E+001	2,8076420E+000	6,0111660E+001	-2,6770945E+000	6,217457646488765E+002	6,9989306E-001	1,3680422E+000	8,9827441E+003	1,9596344E+001	1,000000000000000E+000	11	1,0243195E-002	1,7040280E-004	0	8,759445563331506E-003	1,6617553E-002	7,7700592E-004	1,6635709E-002	2,6770945E+000	1,9596340E+004	4,1910016E+005	4,1955806E+005	-8,7322906E+001	0,0000000E+000	0,0000000E+000	0,0000000E+000	8,7322906E+001	0,0000000E+000	0,0000000E+000	0,0000000E+000	-8,7322906E+001	0,0000000E+000	0,0000000E+000	0,0000000E+000	-2,6770945E+000	0,0000000E+000	0,0000000E+000	0,0000000E+000	2,6770945E+000	2,1386650E+001	8,7322906E+001	1,406499705082064E-004
1,9970603E+000	6,3836807E+001	2,2188213E+000	6,3875355E+001	-1,9906689E+000	6,254573182651948E+002	6,9994265E-001	1,3528383E+000	3,5917543E+004	4,3339573E+001	1,000000000000000E+000	11	1,0244043E-002	1,6037551E-004	0	1,013582540589631E-002	1,5646042E-002	5,4382061E-004	1,5655490E-002	1,9906689E+000	4,3339578E+004	1,2469051E+006	1,2476581E+006	-8,8009331E+001	0,0000000E+000	0,0000000E+000	0,0000000E+000	8,8009331E+001	0,0000000E+000	0,0000000E+000	0,0000000E+000	-8,8009331E+001	0,0000000E+000	0,0000000E+000	0,0000000E+000	-1,9906689E+000	0,0000000E+000	0,0000000E+000	0,0000000E+000	1,9906689E+000	2,8770594E+001	8,8009331E+001	4,063230957207283E-004
6,2907392E-001	7,3340454E+001	3,1890106E+000	7,3409752E+001	-2,4897833E+000	8,411358498426707E+002	6,9989973E-001	1,2333348E+000	7,9334570E+004	1,4971555E+002	1,000000000000000E+000	11	1,0343958E-002	1,4090713E-004	0	8,596990994555974E-002	1,3609309E-002	5,9176388E-004	1,3622168E-002	2,4897833E+000	1,4971561E+005	3,4431385E+006	3,4463920E+006	-8,7510216E+001	0,0000000E+000	0,0000000E+000	0,0000000E+000	8,7510216E+001	0,0000000E+000	0,0000000E+000	0,0000000E+000	-8,7510216E+001	0,0000000E+000	0,0000000E+000	0,0000000E+000	-2,4897833E+000	0,0000000E+000	0,0000000E+000	0,0000000E+000	2,4897833E+000	2,2997871E+001	8,7510216E+001	0,000000000000000E+000
1,9970600E-001	7,4801994E+001	7,0166354E+000	7,5130363E+001	-5,3588228E+000	8,411374837093026E+002	6,9989973E-001	1,2333348E+000	1,1357954E+005	9,9066528E+002	1,000000000000000E+000	11	1,0347038E-002	1,3772112E-004	0	8,596990994555974E-002	1,3252024E-002	1,2430766E-003	1,3310198E-002	5,3588228E+000	9,9066581E+005	1,0561150E+007	1,0607512E+007	-8,4641174E+001	0,0000000E+000	0,0000000E+000	0,0000000E+000	8,4641174E+001	0,0000000E+000	0,0000000E+000	0,0000000E+000	-8,4641174E+001	0,0000000E+000	0,0000000E+000	0,0000000E+000	-5,3588228E+000	0,0000000E+000	0,0000000E+000	0,0000000E+000	5,3588228E+000	1,0660665E+001	8,4641174E+001	0,000000000000000E+000
5,9911802E-002	7,5259560E+001	4,9027658E+000	7,5419083E+001	-3,7272530E+000	8,411391175759345E+002	6,9989973E-001	1,2333348E+000	5,4183444E+005	2,2897412E+003	1,000000000000000E+000	11	1,0348350E-002	1,3721129E-004	0	8,596990994555974E-002	1,3231198E-002	8,6194318E-004	1,3259244E-002	3,7272530E+000	2,2897390E+006	3,5148512E+007	3,5223016E+007	-8,6272751E+001	0,0000000E+000	0,0000000E+000	0,0000000E+000	8,6272751E+001	0,0000000E+000	0,0000000E+000	0,0000000E+000	-8,6272751E+001	0,0000000E+000	0,0000000E+000	0,0000000E+000	-3,7272530E+000	0,0000000E+000	0,0000000E+000	0,0000000E+000	3,7272530E+000	1,5350430E+001	8,6272751E+001	0,000000000000000E+000
9,9853007E-003	7,3459496E+001	-3,3634253E+000	7,3536453E+001	2,6215205E+000	8,411407514425664E+002	6,9989973E-001	1,2333348E+000	-4,7388965E+006	-9,9136924E+003	1,000000000000000E+000	11	1,0347948E-002	1,4071862E-004	0	8,596997579322797E-002	1,3584467E-002	-6,2198000E-004	1,3598698E-002	-2,6215205E+000	-9,9136930E+006	2,1652178E+008	2,1674861E+008	-9,2621521E+001	0,0000000E+000	0,0000000E+000	0,0000000E+000	9,2621521E+001	0,0000000E+000	0,0000000E+000	0,0000000E+000	-9,2621521E+001	0,0000000E+000	0,0000000E+000	0,0000000E+000	2,6215205E+000	0,0000000E+000	0,0000000E+000	0,0000000E+000	-2,6215205E+000	2,1840681E+001	8,7378479E+001	0,000000000000000E+000