Folder: nife-mo-alkaline-oer-data/fig_4_nife_ceo2/EIS_1_nyquist

Note: README.md
# Raw Data and Plot Scripts for the Manuscript

This repository contains the raw data and plotting scripts for the figures in the following manuscript:

**Varghese, N. K., Mkrtchian, E., Singh, A., Savio, L., Boccia, M., Marzocchi, V., & Comite, A., NiFe on CeO2, TiO2 and ZrO2 Supports as Efficient Oxygen Evolution Reaction Catalysts in Alkaline Media. ACS Appl. Energy Mater. 2025; doi:10.1021/acsaem.4c03268**

Each folder corresponds to a specific figure in the paper, with the folder name matching the figure number/details. Inside each folder, you will find the raw data files and the Python scripts used to generate the plots for that figure.

The **XPS plots** were generated using a commercial software. The folder `fig_3_and_si_xps` contains only the raw XPS data.

If you use this data, please cite the above article.

## License

This project is licensed under the **GNU General Public License (GPL)**, which allows you to freely use, modify and distribute the code, provided that any derivative works are also licensed under GPL.

File: Fe100_OCP+EIS_1_02_PEIS_C01.txt
freq/Hz	Re(Z)/Ohm	-Im(Z)/Ohm	|Z|/Ohm	Phase(Z)/deg	time/s	<Ewe>/V	<I>/mA	Cs/�F	Cp/�F	cycle number	I Range	|Ewe|/V	|I|/A	Ns	(Q-Qo)/mA.h	Re(Y)/Ohm-1	Im(Y)/Ohm-1	|Y|/Ohm-1	Phase(Y)/deg	Re(C)/nF	Im(C)/nF	|C|/nF	Phase(C)/deg	Re(M)	Im(M)	|M|	Phase(M)/deg	Re(Permittivity)	Im(Permittivity)	|Permittivity|	Phase(Permittivity)/deg	Re(Resistivity)/Ohm.cm	Im(Resistivity)/Ohm.cm	|Resistivity|/Ohm.cm	Phase(Resistivity)/deg	Re(Conductivity)/mS/cm	Im(Conductivity)/mS/cm	|Conductivity|/mS/cm
1,9999814E+005	6,5037112E+000	-5,3593773E-001	6,5257559E+000	4,7108097E+000	6,013900721620157E+002	6,9979936E-001	2,2810941E+000	-1,4848406E+000	-1,0014906E-002	1,000000000000000E+000	10	9,9010421E-003	1,5172253E-003	0	7,205124265027957E-004	1,5272130E-001	-1,2584984E-002	1,5323895E-001	-4,7108097E+000	-1,0014902E+001	1,2153288E+002	1,2194482E+002	-9,4710808E+001	0,0000000E+000	0,0000000E+000	0,0000000E+000	9,4710808E+001	0,0000000E+000	0,0000000E+000	0,0000000E+000	-9,4710808E+001	0,0000000E+000	0,0000000E+000	0,0000000E+000	4,7108097E+000	0,0000000E+000	0,0000000E+000	0,0000000E+000	-4,7108097E+000	1,2135200E+001	8,5289192E+001	7,205124265027957E-004
6,3233004E+004	6,1260271E+000	3,9509556E-001	6,1387548E+000	-3,6901565E+000	6,035000750889158E+002	6,9989645E-001	2,1696441E+000	6,3705096E+000	2,6388694E-002	1,000000000000000E+000	10	1,0394550E-002	1,6932668E-003	0	1,991920843525609E-003	1,6256174E-001	1,0484351E-002	1,6289948E-001	3,6901565E+000	2,6388683E+001	4,0916144E+002	4,1001151E+002	-8,6309845E+001	0,0000000E+000	0,0000000E+000	0,0000000E+000	8,6309845E+001	0,0000000E+000	0,0000000E+000	0,0000000E+000	-8,6309845E+001	0,0000000E+000	0,0000000E+000	0,0000000E+000	-3,6901565E+000	0,0000000E+000	0,0000000E+000	0,0000000E+000	3,6901565E+000	1,5505178E+001	8,6309845E+001	2,512287038144293E-004
1,9995176E+004	6,3364859E+000	1,1159056E+000	6,4339957E+000	-9,9878292E+000	6,056110745224723E+002	6,9991046E-001	2,1230941E+000	7,1329212E+000	2,1456596E-001	1,000000000000000E+000	10	1,0176119E-002	1,5816174E-003	0	3,227016761417048E-003	1,5306890E-001	2,6956651E-002	1,5542442E-001	9,9878292E+000	2,1456599E+002	1,2183773E+003	1,2371265E+003	-8,0012169E+001	0,0000000E+000	0,0000000E+000	0,0000000E+000	8,0012169E+001	0,0000000E+000	0,0000000E+000	0,0000000E+000	-8,0012169E+001	0,0000000E+000	0,0000000E+000	0,0000000E+000	-9,9878292E+000	0,0000000E+000	0,0000000E+000	0,0000000E+000	9,9878292E+000	5,6783347E+000	8,0012169E+001	2,447945644899739E-004
6,3238188E+003	6,9667287E+000	3,0860167E+000	7,6196332E+000	-2,3891665E+001	6,074618717304402E+002	6,9993657E-001	2,0757883E+000	8,1553469E+000	1,3377373E+000	1,000000000000000E+000	10	1,0522488E-002	1,3809704E-003	0	4,265765046573762E-003	1,1999433E-001	5,3153288E-002	1,3123991E-001	2,3891665E+001	1,3377374E+003	3,0199624E+003	3,3029856E+003	-6,6108337E+001	0,0000000E+000	0,0000000E+000	0,0000000E+000	6,6108337E+001	0,0000000E+000	0,0000000E+000	0,0000000E+000	-6,6108337E+001	0,0000000E+000	0,0000000E+000	0,0000000E+000	-2,3891665E+001	0,0000000E+000	0,0000000E+000	0,0000000E+000	2,3891665E+001	2,2575150E+000	6,6108337E+001	2,211975722247739E-004
1,9980818E+003	9,7375908E+000	7,9742007E+000	1,2586046E+001	-3,9314354E+001	6,097895257876517E+002	6,9999909E-001	2,0470223E+000	9,9889469E+000	4,0097322E+000	1,000000000000000E+000	10	1,0310002E-002	8,1916130E-004	0	5,582126190454518E-003	6,1471369E-002	5,0339453E-002	7,9453066E-002	3,9314354E+001	4,0097319E+003	4,8964321E+003	6,3287437E+003	-5,0685646E+001	0,0000000E+000	0,0000000E+000	0,0000000E+000	5,0685646E+001	0,0000000E+000	0,0000000E+000	0,0000000E+000	-5,0685646E+001	0,0000000E+000	0,0000000E+000	0,0000000E+000	-3,9314354E+001	0,0000000E+000	0,0000000E+000	0,0000000E+000	3,9314354E+001	1,2211369E+000	5,0685638E+001	2,602989313447487E-004
6,3181964E+002	1,9618980E+001	1,4274414E+001	2,4262384E+001	-3,6038956E+001	6,121127730446606E+002	7,0000184E-001	2,0340338E+000	1,7646912E+001	6,1082716E+000	1,000000000000000E+000	10	1,0142800E-002	4,1804631E-004	0	6,874261308250108E-003	3,3328015E-002	2,4248861E-002	4,1216064E-002	3,6038956E+001	6,1082715E+003	8,3953047E+003	1,0382299E+004	-5,3961044E+001	0,0000000E+000	0,0000000E+000	0,0000000E+000	5,3961044E+001	0,0000000E+000	0,0000000E+000	0,0000000E+000	-5,3961044E+001	0,0000000E+000	0,0000000E+000	0,0000000E+000	-3,6038956E+001	0,0000000E+000	0,0000000E+000	0,0000000E+000	3,6038956E+001	1,3744158E+000	5,3961044E+001	2,576031566635167E-004
1,9980818E+002	3,3855106E+001	1,2040617E+001	3,5932503E+001	-1,9578001E+001	6,146885154870251E+002	6,9997907E-001	2,0142205E+000	6,6154305E+001	7,4281497E+000	1,000000000000000E+000	11	1,0138444E-002	2,8215244E-004	0	8,279199574787247E-003	2,6221000E-002	9,3255360E-003	2,7829956E-002	1,9578001E+001	7,4281504E+003	2,0886041E+004	2,2167637E+004	-7,0421997E+001	0,0000000E+000	0,0000000E+000	0,0000000E+000	7,0421997E+001	0,0000000E+000	0,0000000E+000	0,0000000E+000	-7,0421997E+001	0,0000000E+000	0,0000000E+000	0,0000000E+000	-1,9578001E+001	0,0000000E+000	0,0000000E+000	0,0000000E+000	1,9578001E+001	2,8117418E+000	7,0421997E+001	2,563802052046715E-004
6,3160763E+001	4,0188240E+001	5,6668239E+000	4,0585804E+001	-8,0261908E+000	6,170301778381545E+002	6,9997454E-001	1,9917988E+000	4,4466510E+002	8,6689034E+000	1,000000000000000E+000	11	1,0119740E-002	2,4934186E-004	0	9,558781595689271E-003	2,4397802E-002	3,4402609E-003	2,4639158E-002	8,0261908E+000	8,6689043E+003	6,1478527E+004	6,2086707E+004	-8,1973808E+001	0,0000000E+000	0,0000000E+000	0,0000000E+000	8,1973808E+001	0,0000000E+000	0,0000000E+000	0,0000000E+000	-8,1973808E+001	0,0000000E+000	0,0000000E+000	0,0000000E+000	-8,0261908E+000	0,0000000E+000	0,0000000E+000	0,0000000E+000	8,0261908E+000	7,0918455E+000	8,1973808E+001	2,600227789075066E-004
1,9980818E+001	4,2161831E+001	2,6958921E+000	4,2247932E+001	-3,6585994E+000	6,193335074943170E+002	6,9998896E-001	1,9815426E+000	2,9546387E+003	1,2030910E+001	1,000000000000000E+000	11	1,0110378E-002	2,3931060E-004	0	1,080983954053998E-002	2,3621559E-002	1,5103987E-003	2,3669798E-002	3,6585994E+000	1,2030910E+004	1,8815483E+005	1,8853908E+005	-8,6341400E+001	0,0000000E+000	0,0000000E+000	0,0000000E+000	8,6341400E+001	0,0000000E+000	0,0000000E+000	0,0000000E+000	-8,6341400E+001	0,0000000E+000	0,0000000E+000	0,0000000E+000	-3,6585994E+000	0,0000000E+000	0,0000000E+000	0,0000000E+000	3,6585994E+000	1,5639287E+001	8,6341400E+001	2,517313441381171E-004
6,3105812E+000	4,2802330E+001	1,0767363E+000	4,2815872E+001	-1,4410299E+000	6,217367654751142E+002	6,9995517E-001	1,9642717E+000	2,3422941E+004	1,4813257E+001	1,000000000000000E+000	11	1,0116535E-002	2,3628002E-004	0	1,211604912377640E-002	2,3348438E-002	5,8735377E-004	2,3355825E-002	1,4410299E+000	1,4813283E+004	5,8885531E+005	5,8904163E+005	-8,8558968E+001	0,0000000E+000	0,0000000E+000	0,0000000E+000	8,8558968E+001	0,0000000E+000	0,0000000E+000	0,0000000E+000	-8,8558968E+001	0,0000000E+000	0,0000000E+000	0,0000000E+000	-1,4410299E+000	0,0000000E+000	0,0000000E+000	0,0000000E+000	1,4410299E+000	3,9751915E+001	8,8558968E+001	2,069309036839724E-004
1,9970603E+000	4,2779686E+001	-2,2899500E-001	4,2780300E+001	3,0669513E-001	6,254482799180987E+002	6,9998902E-001	1,9554142E+000	-3,4801900E+005	-9,9716558E+000	1,000000000000000E+000	11	1,0118069E-002	2,3651234E-004	0	1,410855434157208E-002	2,3374910E-002	-1,2512335E-004	2,3375245E-002	-3,0669513E-001	-9,9716211E+003	1,8628544E+006	1,8628811E+006	-9,0306694E+001	0,0000000E+000	0,0000000E+000	0,0000000E+000	9,0306694E+001	0,0000000E+000	0,0000000E+000	0,0000000E+000	-9,0306694E+001	0,0000000E+000	0,0000000E+000	0,0000000E+000	3,0669513E-001	0,0000000E+000	0,0000000E+000	0,0000000E+000	-3,0669513E-001	1,8681494E+002	8,9693306E+001	5,841630595823655E-004
6,2907392E-001	5,2882137E+001	7,7720404E-001	5,2887848E+001	-8,4201038E-001	8,411249690955010E+002	6,9995147E-001	1,6687127E+000	3,2552428E+005	7,0297798E+001	1,000000000000000E+000	11	1,0344862E-002	1,9559998E-004	0	1,174437270673174E-001	1,8905893E-002	2,7785823E-004	1,8907934E-002	8,4201038E-001	7,0297813E+004	4,7831685E+006	4,7836850E+006	-8,9157990E+001	0,0000000E+000	0,0000000E+000	0,0000000E+000	8,9157990E+001	0,0000000E+000	0,0000000E+000	0,0000000E+000	-8,9157990E+001	0,0000000E+000	0,0000000E+000	0,0000000E+000	-8,4201038E-001	0,0000000E+000	0,0000000E+000	0,0000000E+000	8,4201038E-001	6,8041512E+001	8,9157990E+001	0,000000000000000E+000
1,9970600E-001	5,3951618E+001	3,5522072E+000	5,4068432E+001	-3,7669518E+000	8,411269010955148E+002	6,9995147E-001	1,6687127E+000	2,2435241E+005	9,6836652E+002	1,000000000000000E+000	11	1,0348015E-002	1,9138736E-004	0	1,174437270673174E-001	1,8455124E-002	1,2150964E-003	1,8495081E-002	3,7669518E+000	9,6836663E+005	1,4707740E+007	1,4739584E+007	-8,6233047E+001	0,0000000E+000	0,0000000E+000	0,0000000E+000	8,6233047E+001	0,0000000E+000	0,0000000E+000	0,0000000E+000	-8,6233047E+001	0,0000000E+000	0,0000000E+000	0,0000000E+000	-3,7669518E+000	0,0000000E+000	0,0000000E+000	0,0000000E+000	3,7669518E+000	1,5188195E+001	8,6233047E+001	0,000000000000000E+000
5,9911802E-002	5,3082207E+001	2,0737598E+000	5,3122700E+001	-2,2372336E+000	8,411288330955285E+002	6,9995147E-001	1,6687127E+000	1,2810005E+006	1,9521174E+003	1,000000000000000E+000	11	1,0349140E-002	1,9481577E-004	0	1,174437270673174E-001	1,8809997E-002	7,3484919E-004	1,8824345E-002	2,2372336E+000	1,9521198E+006	4,9968520E+007	5,0006636E+007	-8,7762764E+001	0,0000000E+000	0,0000000E+000	0,0000000E+000	8,7762764E+001	0,0000000E+000	0,0000000E+000	0,0000000E+000	-8,7762764E+001	0,0000000E+000	0,0000000E+000	0,0000000E+000	-2,2372336E+000	0,0000000E+000	0,0000000E+000	0,0000000E+000	2,2372336E+000	2,5597086E+001	8,7762764E+001	0,000000000000000E+000
9,9853007E-003	5,1582802E+001	2,8776453E+000	5,1663006E+001	-3,1930451E+000	8,411307650955423E+002	6,9995147E-001	1,6687127E+000	5,5388775E+006	1,7184500E+004	1,000000000000000E+000	11	1,0349482E-002	2,0032676E-004	0	1,174438189199161E-001	1,9326160E-002	1,0781469E-003	1,9356210E-002	3,1930451E+000	1,7184508E+007	3,0803818E+008	3,0851715E+008	-8,6806953E+001	0,0000000E+000	0,0000000E+000	0,0000000E+000	8,6806953E+001	0,0000000E+000	0,0000000E+000	0,0000000E+000	-8,6806953E+001	0,0000000E+000	0,0000000E+000	0,0000000E+000	-3,1930451E+000	0,0000000E+000	0,0000000E+000	0,0000000E+000	3,1930451E+000	1,7925352E+001	8,6806953E+001	0,000000000000000E+000

File: Ni10Fe90_OCP+EIS_1_02_PEIS_C01.txt
freq/Hz	Re(Z)/Ohm	-Im(Z)/Ohm	|Z|/Ohm	Phase(Z)/deg	time/s	<Ewe>/V	<I>/mA	Cs/�F	Cp/�F	cycle number	I Range	|Ewe|/V	|I|/A	Ns	(Q-Qo)/mA.h	Re(Y)/Ohm-1	Im(Y)/Ohm-1	|Y|/Ohm-1	Phase(Y)/deg	Re(C)/nF	Im(C)/nF	|C|/nF	Phase(C)/deg	Re(M)	Im(M)	|M|	Phase(M)/deg	Re(Permittivity)	Im(Permittivity)	|Permittivity|	Phase(Permittivity)/deg	Re(Resistivity)/Ohm.cm	Im(Resistivity)/Ohm.cm	|Resistivity|/Ohm.cm	Phase(Resistivity)/deg	Re(Conductivity)/mS/cm	Im(Conductivity)/mS/cm	|Conductivity|/mS/cm
1,9999814E+005	7,8679829E+000	-3,6408779E-001	7,8764024E+000	2,6494493E+000	6,012340715412720E+002	6,9978559E-001	2,2382264E+000	-2,1856875E+000	-4,6702968E-003	1,000000000000000E+000	10	9,0945633E-003	1,1546595E-003	0	6,246277288909121E-004	1,2682579E-001	-5,8688135E-003	1,2696151E-001	-2,6494493E+000	-4,6703019E+000	1,0092570E+002	1,0103371E+002	-9,2649452E+001	0,0000000E+000	0,0000000E+000	0,0000000E+000	9,2649452E+001	0,0000000E+000	0,0000000E+000	0,0000000E+000	-9,2649452E+001	0,0000000E+000	0,0000000E+000	0,0000000E+000	2,6494493E+000	0,0000000E+000	0,0000000E+000	0,0000000E+000	-2,6494493E+000	2,1610126E+001	8,7350548E+001	6,246277288909121E-004
6,3233004E+004	7,4248443E+000	7,9148453E-001	7,4669108E+000	-6,0847220E+000	6,033450764948939E+002	6,9985956E-001	2,0652683E+000	3,1800494E+000	3,5730314E-002	1,000000000000000E+000	10	1,0343838E-002	1,3852901E-003	0	1,851942724485959E-003	1,3316970E-001	1,4195820E-002	1,3392419E-001	6,0847220E+000	3,5730324E+001	3,3518277E+002	3,3708182E+002	-8,3915276E+001	0,0000000E+000	0,0000000E+000	0,0000000E+000	8,3915276E+001	0,0000000E+000	0,0000000E+000	0,0000000E+000	-8,3915276E+001	0,0000000E+000	0,0000000E+000	0,0000000E+000	-6,0847220E+000	0,0000000E+000	0,0000000E+000	0,0000000E+000	6,0847220E+000	9,3809090E+000	8,3915276E+001	2,395153454542158E-004
1,9995176E+004	7,9544129E+000	2,0950036E+000	8,2256746E+000	-1,4755264E+001	6,054560692351515E+002	6,9986761E-001	1,9776360E+000	3,7993569E+000	2,4645442E-001	1,000000000000000E+000	10	1,0148656E-002	1,2337778E-003	0	3,009286585333337E-003	1,1756148E-001	3,0962907E-002	1,2157057E-001	1,4755264E+001	2,4645444E+002	9,3575031E+002	9,6766132E+002	-7,5244736E+001	0,0000000E+000	0,0000000E+000	0,0000000E+000	7,5244736E+001	0,0000000E+000	0,0000000E+000	0,0000000E+000	-7,5244736E+001	0,0000000E+000	0,0000000E+000	0,0000000E+000	-1,4755264E+001	0,0000000E+000	0,0000000E+000	0,0000000E+000	1,4755264E+001	3,7968493E+000	7,5244736E+001	2,283463043636553E-004
6,3238188E+003	9,8515272E+000	4,9211617E+000	1,1012285E+001	-2,6543634E+001	6,071708914232877E+002	6,9990385E-001	1,9449717E+000	5,1141453E+000	1,0213002E+000	1,000000000000000E+000	10	1,0455715E-002	9,4945921E-004	0	3,919021802323017E-003	8,1236027E-002	4,0580064E-002	9,0807676E-002	2,6543634E+001	1,0213001E+003	2,0445105E+003	2,2854053E+003	-6,3456367E+001	0,0000000E+000	0,0000000E+000	0,0000000E+000	6,3456367E+001	0,0000000E+000	0,0000000E+000	0,0000000E+000	-6,3456367E+001	0,0000000E+000	0,0000000E+000	0,0000000E+000	-2,6543634E+001	0,0000000E+000	0,0000000E+000	0,0000000E+000	2,6543634E+001	2,0018702E+000	6,3456367E+001	2,069612187331725E-004
1,9980818E+003	1,5278945E+001	8,8511772E+000	1,7657562E+001	-3,0083950E+001	6,094985146005201E+002	6,9998246E-001	1,9077727E+000	8,9992399E+000	2,2612386E+000	1,000000000000000E+000	10	1,0211739E-002	5,7832099E-004	0	5,141679074493211E-003	4,9004037E-002	2,8388310E-002	5,6632958E-002	3,0083950E+001	2,2612388E+003	3,9033613E+003	4,5110342E+003	-5,9916050E+001	0,0000000E+000	0,0000000E+000	0,0000000E+000	5,9916050E+001	0,0000000E+000	0,0000000E+000	0,0000000E+000	-5,9916050E+001	0,0000000E+000	0,0000000E+000	0,0000000E+000	-3,0083950E+001	0,0000000E+000	0,0000000E+000	0,0000000E+000	3,0083950E+001	1,7262049E+000	5,9916046E+001	2,429254049358294E-004
6,3181964E+002	2,4606775E+001	1,0446469E+001	2,6732416E+001	-2,3002987E+001	6,118217562574864E+002	6,9997680E-001	1,8678555E+000	2,4113346E+001	3,6823080E+000	1,000000000000000E+000	10	1,0128517E-002	3,7888519E-004	0	6,340684937481950E-003	3,4433268E-002	1,4618174E-002	3,7407767E-002	2,3002987E+001	3,6823088E+003	8,6737168E+003	9,4229912E+003	-6,6997009E+001	0,0000000E+000	0,0000000E+000	0,0000000E+000	6,6997009E+001	0,0000000E+000	0,0000000E+000	0,0000000E+000	-6,6997009E+001	0,0000000E+000	0,0000000E+000	0,0000000E+000	-2,3002987E+001	0,0000000E+000	0,0000000E+000	0,0000000E+000	2,3002987E+001	2,3555112E+000	6,6997009E+001	2,369777340104854E-004
1,9980818E+002	3,2939999E+001	7,5513978E+000	3,3794483E+001	-1,2911785E+001	6,143975229398784E+002	6,9994694E-001	1,8485296E+000	1,0548228E+002	5,2667484E+000	1,000000000000000E+000	11	1,0138684E-002	3,0001003E-004	0	7,633177824315317E-003	2,8842438E-002	6,6120443E-003	2,9590629E-002	1,2911785E+001	5,2667500E+003	2,2974115E+004	2,3570078E+004	-7,7088211E+001	0,0000000E+000	0,0000000E+000	0,0000000E+000	7,7088211E+001	0,0000000E+000	0,0000000E+000	0,0000000E+000	-7,7088211E+001	0,0000000E+000	0,0000000E+000	0,0000000E+000	-1,2911785E+001	0,0000000E+000	0,0000000E+000	0,0000000E+000	1,2911785E+001	4,3621063E+000	7,7088211E+001	2,354085300525178E-004
6,3160763E+001	3,7112774E+001	3,6684656E+000	3,7293640E+001	-5,6451464E+000	6,167381564110256E+002	6,9996214E-001	1,8246151E+000	6,8689178E+002	6,6464186E+000	1,000000000000000E+000	11	1,0122939E-002	2,7143874E-004	0	8,809151495023010E-003	2,6684180E-002	2,6376364E-003	2,6814224E-002	5,6451464E+000	6,6464219E+003	6,7239836E+004	6,7567523E+004	-8,4354851E+001	0,0000000E+000	0,0000000E+000	0,0000000E+000	8,4354851E+001	0,0000000E+000	0,0000000E+000	0,0000000E+000	-8,4354851E+001	0,0000000E+000	0,0000000E+000	0,0000000E+000	-5,6451464E+000	0,0000000E+000	0,0000000E+000	0,0000000E+000	5,6451464E+000	1,0116702E+001	8,4354851E+001	2,383751976320313E-004
1,9980818E+001	3,9021946E+001	1,6062320E+000	3,9054989E+001	-2,3570940E+000	6,190415090804308E+002	6,9996101E-001	1,8004074E+000	4,9590513E+003	8,3880711E+000	1,000000000000000E+000	11	1,0118933E-002	2,5909452E-004	0	9,947306475808663E-003	2,5583260E-002	1,0530652E-003	2,5604924E-002	2,3570940E+000	8,3880713E+003	2,0378056E+005	2,0395313E+005	-8,7642906E+001	0,0000000E+000	0,0000000E+000	0,0000000E+000	8,7642906E+001	0,0000000E+000	0,0000000E+000	0,0000000E+000	-8,7642906E+001	0,0000000E+000	0,0000000E+000	0,0000000E+000	-2,3570940E+000	0,0000000E+000	0,0000000E+000	0,0000000E+000	2,3570940E+000	2,4294090E+001	8,7642906E+001	2,291802853957702E-004
6,3105812E+000	3,9218037E+001	4,6261159E-001	3,9220764E+001	-6,7582333E-001	6,214437596745411E+002	6,9993109E-001	1,7767354E+000	5,4517293E+004	7,5846434E+000	1,000000000000000E+000	11	1,0121367E-002	2,5806145E-004	0	1,112200386553553E-002	2,5494926E-002	3,0073532E-004	2,5496699E-002	6,7582333E-001	7,5846855E+003	6,4299044E+005	6,4303519E+005	-8,9324173E+001	0,0000000E+000	0,0000000E+000	0,0000000E+000	8,9324173E+001	0,0000000E+000	0,0000000E+000	0,0000000E+000	-8,9324173E+001	0,0000000E+000	0,0000000E+000	0,0000000E+000	-6,7582333E-001	0,0000000E+000	0,0000000E+000	0,0000000E+000	6,7582333E-001	8,4775299E+001	8,9324173E+001	1,835265711958838E-004
1,9970603E+000	4,0269646E+001	5,6790030E-001	4,0273651E+001	-8,0795676E-001	6,251542711574657E+002	6,9996542E-001	1,7560230E+000	1,4033203E+005	2,7903522E+001	1,000000000000000E+000	11	1,0116322E-002	2,5118960E-004	0	1,291803988640393E-002	2,4827663E-002	3,5013063E-004	2,4830131E-002	8,0795676E-001	2,7903654E+004	1,9786309E+006	1,9788276E+006	-8,9192039E+001	0,0000000E+000	0,0000000E+000	0,0000000E+000	8,9192039E+001	0,0000000E+000	0,0000000E+000	0,0000000E+000	-8,9192039E+001	0,0000000E+000	0,0000000E+000	0,0000000E+000	-8,0795676E-001	0,0000000E+000	0,0000000E+000	0,0000000E+000	8,0795676E-001	7,0909714E+001	8,9192039E+001	5,273363132967824E-004
6,2907392E-001	4,6433880E+001	1,0939127E+000	4,6446762E+001	-1,3495532E+000	8,408320817748754E+002	6,9992518E-001	1,6042093E+000	2,3127877E+005	1,2828925E+002	1,000000000000000E+000	11	1,0344170E-002	2,2271025E-004	0	1,115500619986309E-001	2,1524055E-002	5,0707452E-004	2,1530027E-002	1,3495532E+000	1,2828950E+005	5,4455595E+006	5,4470705E+006	-8,8650444E+001	0,0000000E+000	0,0000000E+000	0,0000000E+000	8,8650444E+001	0,0000000E+000	0,0000000E+000	0,0000000E+000	-8,8650444E+001	0,0000000E+000	0,0000000E+000	0,0000000E+000	-1,3495532E+000	0,0000000E+000	0,0000000E+000	0,0000000E+000	1,3495532E+000	4,2447517E+001	8,8650444E+001	0,000000000000000E+000
1,9970600E-001	4,6777782E+001	4,7233419E+000	4,7015644E+001	-5,7658443E+000	8,408342955081171E+002	6,9992518E-001	1,6042093E+000	1,6872508E+005	1,7029175E+003	1,000000000000000E+000	11	1,0347442E-002	2,2008507E-004	0	1,115500619986309E-001	2,1161910E-002	2,1368037E-003	2,1269517E-002	5,7658443E+000	1,7029184E+006	1,6864904E+007	1,6950662E+007	-8,4234154E+001	0,0000000E+000	0,0000000E+000	0,0000000E+000	8,4234154E+001	0,0000000E+000	0,0000000E+000	0,0000000E+000	-8,4234154E+001	0,0000000E+000	0,0000000E+000	0,0000000E+000	-5,7658443E+000	0,0000000E+000	0,0000000E+000	0,0000000E+000	5,7658443E+000	9,9035349E+000	8,4234154E+001	0,000000000000000E+000
5,9911802E-002	4,4450878E+001	2,2966785E+000	4,4510170E+001	-2,9577160E+000	8,408365092413587E+002	6,9992518E-001	1,6042093E+000	1,1566649E+006	3,0795657E+003	1,000000000000000E+000	11	1,0348458E-002	2,3249647E-004	0	1,115500619986309E-001	2,2436846E-002	1,1592621E-003	2,2466775E-002	2,9577160E+000	3,0795673E+006	5,9603196E+007	5,9682700E+007	-8,7042282E+001	0,0000000E+000	0,0000000E+000	0,0000000E+000	8,7042282E+001	0,0000000E+000	0,0000000E+000	0,0000000E+000	-8,7042282E+001	0,0000000E+000	0,0000000E+000	0,0000000E+000	-2,9577160E+000	0,0000000E+000	0,0000000E+000	0,0000000E+000	2,9577160E+000	1,9354418E+001	8,7042282E+001	0,000000000000000E+000
9,9853007E-003	4,5645817E+001	-1,4475056E+000	4,5668762E+001	1,8163369E+000	8,408387229746004E+002	6,9992518E-001	1,6042093E+000	-1,1011304E+007	-1,1062182E+004	1,000000000000000E+000	11	1,0351152E-002	2,2665717E-004	0	1,115501464526309E-001	2,1885803E-002	-6,9403567E-004	2,1896806E-002	-1,8163369E+000	-1,1062186E+007	3,4883616E+008	3,4901152E+008	-9,1816338E+001	0,0000000E+000	0,0000000E+000	0,0000000E+000	9,1816338E+001	0,0000000E+000	0,0000000E+000	0,0000000E+000	-9,1816338E+001	0,0000000E+000	0,0000000E+000	0,0000000E+000	1,8163369E+000	0,0000000E+000	0,0000000E+000	0,0000000E+000	-1,8163369E+000	3,1534121E+001	8,8183662E+001	0,000000000000000E+000