Folder: nife-mo-alkaline-oer-data/fig_si_ecsa/CeO2 (part 4)

File: 500.txt
EC-Lab ASCII FILE
Nb header lines : 59

Cyclic Voltammetry

Run on channel : 1 (SN 10336)
User :
CE vs. WE compliance from -10 V to 10 V
Electrode connection : standard
Potential control : Ewe
Ewe ctrl range : min = -2,50 V, max = 2,50 V
Safety Limits :
	Do not start on E overload
Acquisition started on : 10/13/2024 13:58:28.596
Technique started on : 10/13/2024 14:06:14.749
Loaded Setting File :  C:\EC-lab data\Neethu\Methods\CV_ECSA.mps
Saved on :
	File : CV_ECSA_07_CV_C01.mpr
	Directory : C:\EC-lab data\Neethu\2024_10_13_Ni90Fe10_CeO2\CV_ECSA\
	Host : 10.54.33.65
Device : VMP3 (SN 0498)
Address : USB
EC-Lab for windows v11.52 (software)
Internet server v11.52 (firmware)
Command interpretor v11.50 (firmware)
Electrode material :
Initial state :
Electrolyte :
Comments :
Electrode surface area : 0,001 cm²
Characteristic mass : 0,001 g
Volume (V) : 0,001 cm³
Thickness (t) : 0,000 cm
Diameter (d) : 0,000 cm
Cell constant (k=t/A) : 0,000 cm-1
Cycle Definition : Charge/Discharge alternance
Ei (V)              0,064
vs.                 Ref
dE/dt               500,000
dE/dt unit          mV/s
E1 (V)              0,364
vs.                 Ref
Step percent        50
N                   10
E range min (V)     -2,500
E range max (V)     2,500
I Range             Auto
I Range min         Unset
I Range max         Unset
I Range init        Unset
Bandwidth           5
E2 (V)              0,064
vs.                 Ref
nc cycles           3
Reverse Scan        1
Ef (V)              0,070
vs.                 Eoc

Ewe/V	<I>/mA	cycle number
7,7685706E-002	3,399961441755295E-002	1,000000000000000E+000
9,1664076E-002	1,612763850668371E-002	1,000000000000000E+000
1,0569233E-001	1,800650457112685E-002	1,000000000000000E+000
1,1966544E-001	1,886840614052843E-002	1,000000000000000E+000
1,3369477E-001	1,981254454302767E-002	1,000000000000000E+000
1,4766149E-001	2,025162960934618E-002	1,000000000000000E+000
1,6167171E-001	2,110125974205507E-002	1,000000000000000E+000
1,7564589E-001	2,247963543211678E-002	1,000000000000000E+000
1,8966036E-001	2,250694270777687E-002	1,000000000000000E+000
2,0363025E-001	2,338235396463362E-002	1,000000000000000E+000
2,1766067E-001	2,416124289205385E-002	1,000000000000000E+000
2,3168148E-001	2,500199420642779E-002	1,000000000000000E+000
2,4565139E-001	2,562595999148054E-002	1,000000000000000E+000
2,5965738E-001	2,654119977564223E-002	1,000000000000000E+000
2,7364108E-001	2,732564145521289E-002	1,000000000000000E+000
2,8766933E-001	2,870083604850352E-002	1,000000000000000E+000
3,0164033E-001	2,967471965085788E-002	1,000000000000000E+000
3,1560385E-001	3,144376048698583E-002	1,000000000000000E+000
3,2959816E-001	3,371102834029849E-002	1,000000000000000E+000
3,4366143E-001	3,497512551216969E-002	1,000000000000000E+000
3,5761014E-001	3,695967680849011E-002	1,000000000000000E+000
3,5751569E-001	-6,453068937187492E-003	1,000000000000000E+000
3,2862008E-001	-1,709905625587753E-002	1,000000000000000E+000
3,1462470E-001	-1,840194589688826E-002	1,000000000000000E+000
3,0065694E-001	-1,978478334785910E-002	1,000000000000000E+000
2,8671569E-001	-2,089735151578984E-002	1,000000000000000E+000
2,5764289E-001	-2,259112658955725E-002	1,000000000000000E+000
2,4366131E-001	-2,278354079802136E-002	1,000000000000000E+000
2,2961183E-001	-2,344432821660625E-002	1,000000000000000E+000
2,1560584E-001	-2,393618499667755E-002	1,000000000000000E+000
2,0162743E-001	-2,430032144345912E-002	1,000000000000000E+000
1,8768193E-001	-2,456170804725849E-002	1,000000000000000E+000
1,7364942E-001	-2,540840002782510E-002	1,000000000000000E+000
1,5966570E-001	-2,551161025177051E-002	1,000000000000000E+000
1,4570642E-001	-2,658255067136542E-002	1,000000000000000E+000
1,3164526E-001	-2,659231329057044E-002	1,000000000000000E+000
1,1764777E-001	-2,703592665420718E-002	1,000000000000000E+000
1,0363965E-001	-2,799781865986811E-002	1,000000000000000E+000
8,9694142E-002	-2,816260793527668E-002	1,000000000000000E+000
7,5693466E-002	-2,906189688777269E-002	1,000000000000000E+000
6,3192800E-002	-2,924596518278122E-002	1,000000000000000E+000
7,5956546E-002	1,245115125352134E-002	2,000000000000000E+000
8,9987978E-002	1,549688205159325E-002	2,000000000000000E+000
1,0393669E-001	1,643313242129815E-002	2,000000000000000E+000
1,3293734E-001	1,893540311862632E-002	2,000000000000000E+000
1,4692315E-001	1,966060764546756E-002	2,000000000000000E+000
1,6093127E-001	2,036847566180064E-002	2,000000000000000E+000
1,9003057E-001	2,309475938050631E-002	2,000000000000000E+000
2,0394003E-001	2,278187547765104E-002	2,000000000000000E+000
2,1795979E-001	2,330270196843126E-002	2,000000000000000E+000
2,3198701E-001	2,447511963974747E-002	2,000000000000000E+000
2,4597387E-001	2,520593874214683E-002	2,000000000000000E+000
2,5995865E-001	2,571707384453878E-002	2,000000000000000E+000
2,7394977E-001	2,714514751844241E-002	2,000000000000000E+000
2,8795576E-001	2,833761953216818E-002	2,000000000000000E+000
3,0195326E-001	2,900448929075433E-002	2,000000000000000E+000
3,1589770E-001	3,134560935642285E-002	2,000000000000000E+000
3,2992172E-001	3,271991803073124E-002	2,000000000000000E+000
3,4390864E-001	3,461540759437620E-002	2,000000000000000E+000
3,5791036E-001	3,661895692493999E-002	2,000000000000000E+000
3,5745737E-001	-6,769314109280625E-003	2,000000000000000E+000
3,4361267E-001	-1,426515056826044E-002	2,000000000000000E+000
3,1460354E-001	-1,857599252798540E-002	2,000000000000000E+000
3,0067819E-001	-2,003029216494828E-002	2,000000000000000E+000
2,8668913E-001	-2,128613142445418E-002	2,000000000000000E+000
2,6520333E-001	-2,273855911177103E-002	2,000000000000000E+000
2,4368569E-001	-2,300159896428033E-002	2,000000000000000E+000
2,2965425E-001	-2,389282080063521E-002	2,000000000000000E+000
2,1560690E-001	-2,449319532348052E-002	2,000000000000000E+000
2,0162213E-001	-2,445517270057779E-002	2,000000000000000E+000
1,8764797E-001	-2,491590674051430E-002	2,000000000000000E+000
1,7360169E-001	-2,528322373028563E-002	2,000000000000000E+000
1,5965828E-001	-2,553576831188470E-002	2,000000000000000E+000
1,4562365E-001	-2,692136194956324E-002	2,000000000000000E+000
1,3166858E-001	-2,684740319818960E-002	2,000000000000000E+000
1,1765201E-001	-2,736271038237542E-002	2,000000000000000E+000
1,0365132E-001	-2,802349763967665E-002	2,000000000000000E+000
8,9702621E-002	-2,842597568127936E-002	2,000000000000000E+000
7,5687103E-002	-2,912064743052012E-002	2,000000000000000E+000
6,3116424E-002	-2,922559157013893E-002	2,000000000000000E+000
9,0974547E-002	1,516682513101844E-002	3,000000000000000E+000
1,0496144E-001	1,706756438660603E-002	3,000000000000000E+000
1,1897484E-001	1,824310148327241E-002	3,000000000000000E+000
1,3297552E-001	1,877762756642670E-002	3,000000000000000E+000
1,6189131E-001	2,041886040792126E-002	3,000000000000000E+000
1,7594609E-001	2,147971947973326E-002	3,000000000000000E+000
1,8992876E-001	2,165558052203981E-002	3,000000000000000E+000
2,0390821E-001	2,266494107728556E-002	3,000000000000000E+000
2,1800542E-001	2,328091410284594E-002	3,000000000000000E+000
2,3196048E-001	2,429211304034749E-002	3,000000000000000E+000
2,4599510E-001	2,516045259148503E-002	3,000000000000000E+000
2,5998196E-001	2,566225156260765E-002	3,000000000000000E+000
2,7397102E-001	2,688443257162973E-002	3,000000000000000E+000
2,8798229E-001	2,792396501091493E-002	3,000000000000000E+000
[...]
2,7262801E-001	-2,208279321591061E-002	3,000000000000000E+000
2,4370268E-001	-2,357813309006618E-002	3,000000000000000E+000
2,2965319E-001	-2,386997394205537E-002	3,000000000000000E+000
2,1566631E-001	-2,429551240412466E-002	3,000000000000000E+000
2,0162107E-001	-2,470018318086253E-002	3,000000000000000E+000
1,8768509E-001	-2,513183970788513E-002	3,000000000000000E+000
1,7363881E-001	-2,536910305732620E-002	3,000000000000000E+000
1,5965828E-001	-2,559253685103613E-002	3,000000000000000E+000
1,4567989E-001	-2,697455919850550E-002	3,000000000000000E+000
1,3165586E-001	-2,667971142849015E-002	3,000000000000000E+000
1,1767854E-001	-2,737937017890441E-002	3,000000000000000E+000
1,0366086E-001	-2,825043326407065E-002	3,000000000000000E+000
8,9650638E-002	-2,851203181691953E-002	3,000000000000000E+000
7,5648911E-002	-2,895560841150449E-002	3,000000000000000E+000
6,3097328E-002	-2,952036447823048E-002	3,000000000000000E+000
7,5952299E-002	1,206600504439040E-002	4,000000000000000E+000
1,0495400E-001	1,705801289143794E-002	4,000000000000000E+000
1,1893879E-001	1,800254593136841E-002	4,000000000000000E+000
1,3297658E-001	1,881088137027599E-002	4,000000000000000E+000
1,6195709E-001	1,887855886828523E-002	4,000000000000000E+000
1,7594609E-001	2,136038096472875E-002	4,000000000000000E+000
1,8993086E-001	2,177884700884325E-002	4,000000000000000E+000
2,0389971E-001	2,268351140608305E-002	4,000000000000000E+000
2,1792585E-001	2,334921468920781E-002	4,000000000000000E+000
2,3200716E-001	2,429137094966605E-002	4,000000000000000E+000
2,4595584E-001	2,481392976753546E-002	4,000000000000000E+000
2,5993851E-001	2,578155297386633E-002	4,000000000000000E+000
2,7393597E-001	2,684831971095673E-002	4,000000000000000E+000
2,8795683E-001	2,810102936766473E-002	4,000000000000000E+000
3,0195010E-001	2,903069851284584E-002	4,000000000000000E+000
3,1590724E-001	3,109136745762145E-002	4,000000000000000E+000
3,2991642E-001	3,302251078558682E-002	4,000000000000000E+000
3,4392029E-001	3,443675172942073E-002	4,000000000000000E+000
3,5792732E-001	3,664452906741650E-002	4,000000000000000E+000
3,5750085E-001	-7,057864318236767E-003	4,000000000000000E+000
3,4365612E-001	-1,422886022070693E-002	4,000000000000000E+000
3,2962367E-001	-1,737125737741330E-002	4,000000000000000E+000
3,0068451E-001	-2,018983562286147E-002	4,000000000000000E+000
2,8663611E-001	-2,151536676117555E-002	4,000000000000000E+000
2,7266085E-001	-2,205130962789137E-002	4,000000000000000E+000
2,5866765E-001	-2,231167520100519E-002	4,000000000000000E+000
2,2966911E-001	-2,414260699960213E-002	4,000000000000000E+000
2,1566948E-001	-2,410879258806942E-002	4,000000000000000E+000
2,0166670E-001	-2,489220668414616E-002	4,000000000000000E+000
1,8762465E-001	-2,496885423372280E-002	4,000000000000000E+000
1,7367275E-001	-2,567056476699592E-002	4,000000000000000E+000
1,5965934E-001	-2,570742012297458E-002	4,000000000000000E+000
1,4568521E-001	-2,672951207407281E-002	4,000000000000000E+000
1,3166647E-001	-2,684885385476976E-002	4,000000000000000E+000
1,1766154E-001	-2,728698368244092E-002	4,000000000000000E+000
1,0367361E-001	-2,815868127234146E-002	4,000000000000000E+000
8,9668676E-002	-2,836803886182461E-002	4,000000000000000E+000
7,5652085E-002	-2,888876008890092E-002	4,000000000000000E+000
6,3173704E-002	-2,947834506630898E-002	4,000000000000000E+000
7,5971395E-002	1,206211417957093E-002	4,000000000000000E+000
8,9960404E-002	1,521395596986018E-002	4,000000000000000E+000
1,1897379E-001	1,810124377253580E-002	4,000000000000000E+000
1,3296387E-001	1,888021702426257E-002	4,000000000000000E+000
1,3472168E-001	1,881477609276772E-002	4,000000000000000E+000