Folder: nife-mo-alkaline-oer-data/fig_si_ecsa/CeO2 (part 2)

File: 50.txt
EC-Lab ASCII FILE
Nb header lines : 59

Cyclic Voltammetry

Run on channel : 1 (SN 10336)
User :
CE vs. WE compliance from -10 V to 10 V
Electrode connection : standard
Potential control : Ewe
Ewe ctrl range : min = -2,50 V, max = 2,50 V
Safety Limits :
	Do not start on E overload
Acquisition started on : 10/13/2024 13:58:28.596
Technique started on : 10/13/2024 14:04:39.619
Loaded Setting File :  C:\EC-lab data\Neethu\Methods\CV_ECSA.mps
Saved on :
	File : CV_ECSA_03_CV_C01.mpr
	Directory : C:\EC-lab data\Neethu\2024_10_13_Ni90Fe10_CeO2\CV_ECSA\
	Host : 10.54.33.65
Device : VMP3 (SN 0498)
Address : USB
EC-Lab for windows v11.52 (software)
Internet server v11.52 (firmware)
Command interpretor v11.50 (firmware)
Electrode material :
Initial state :
Electrolyte :
Comments :
Electrode surface area : 0,001 cm²
Characteristic mass : 0,001 g
Volume (V) : 0,001 cm³
Thickness (t) : 0,000 cm
Diameter (d) : 0,000 cm
Cell constant (k=t/A) : 0,000 cm-1
Cycle Definition : Charge/Discharge alternance
Ei (V)              0,064
vs.                 Ref
dE/dt               50,000
dE/dt unit          mV/s
E1 (V)              0,364
vs.                 Ref
Step percent        50
N                   10
E range min (V)     -2,500
E range max (V)     2,500
I Range             Auto
I Range min         Unset
I Range max         Unset
I Range init        Unset
Bandwidth           5
E2 (V)              0,064
vs.                 Ref
nc cycles           3
Reverse Scan        1
Ef (V)              0,070
vs.                 Eoc

Ewe/V	<I>/mA	cycle number
6,4300291E-002	1,394405961036682E-002	1,000000000000000E+000
8,1766643E-002	1,057462650856501E-003	1,000000000000000E+000
9,7736202E-002	1,937650906863077E-003	1,000000000000000E+000
1,1373547E-001	2,430177369509096E-003	1,000000000000000E+000
1,2974958E-001	2,793281710182775E-003	1,000000000000000E+000
1,4577535E-001	3,081257901309680E-003	1,000000000000000E+000
1,6169930E-001	3,335412214760761E-003	1,000000000000000E+000
1,7767523E-001	3,551129735569706E-003	1,000000000000000E+000
1,9371480E-001	3,761271077665794E-003	1,000000000000000E+000
2,0972678E-001	3,955618418937469E-003	1,000000000000000E+000
2,2572286E-001	4,172732462191367E-003	1,000000000000000E+000
2,4168710E-001	4,384062235961517E-003	1,000000000000000E+000
2,5771818E-001	4,608303245024412E-003	1,000000000000000E+000
2,7370048E-001	4,856573531772788E-003	1,000000000000000E+000
2,8969336E-001	5,131430279612284E-003	1,000000000000000E+000
3,0568737E-001	5,413520921946552E-003	1,000000000000000E+000
3,2162720E-001	5,731848181312699E-003	1,000000000000000E+000
3,3769962E-001	6,058643455617130E-003	1,000000000000000E+000
3,5370421E-001	6,368746949899824E-003	1,000000000000000E+000
3,5871127E-001	6,574134435292478E-004	1,000000000000000E+000
3,4272158E-001	-9,920288820366198E-004	1,000000000000000E+000
3,2669261E-001	-1,696163700823185E-003	1,000000000000000E+000
3,1070390E-001	-2,234460281368717E-003	1,000000000000000E+000
2,9470471E-001	-2,567689135604369E-003	1,000000000000000E+000
2,7875000E-001	-2,841771857169474E-003	1,000000000000000E+000
2,6276985E-001	-2,999768687004682E-003	1,000000000000000E+000
2,4669418E-001	-3,223999664138923E-003	1,000000000000000E+000
2,3071191E-001	-3,405820194934163E-003	1,000000000000000E+000
2,1469674E-001	-3,512824753973576E-003	1,000000000000000E+000
1,9874625E-001	-3,601656205218101E-003	1,000000000000000E+000
1,8268760E-001	-3,780434990605687E-003	1,000000000000000E+000
1,6669574E-001	-3,888549280519427E-003	1,000000000000000E+000
1,5069968E-001	-4,023191555865582E-003	1,000000000000000E+000
1,3476619E-001	-4,101873476530356E-003	1,000000000000000E+000
1,1869478E-001	-4,272935158143018E-003	1,000000000000000E+000
1,0271038E-001	-4,368691391088461E-003	1,000000000000000E+000
8,6727031E-002	-4,534702781610455E-003	1,000000000000000E+000
7,0739433E-002	-4,638634673837152E-003	1,000000000000000E+000
6,9913067E-002	2,477328041708112E-004	2,000000000000000E+000
8,5935660E-002	1,155187051558147E-003	2,000000000000000E+000
1,0193174E-001	1,734298034231571E-003	2,000000000000000E+000
1,1795752E-001	2,166396051001770E-003	2,000000000000000E+000
1,3395995E-001	2,513511250476275E-003	2,000000000000000E+000
1,4991997E-001	2,790820690279354E-003	2,000000000000000E+000
1,6587469E-001	3,033256086281549E-003	2,000000000000000E+000
1,8191850E-001	3,286438769767621E-003	2,000000000000000E+000
1,9791245E-001	3,513195243309994E-003	2,000000000000000E+000
2,1388094E-001	3,708860465849291E-003	2,000000000000000E+000
2,2990355E-001	3,943581899673337E-003	2,000000000000000E+000
2,4592507E-001	4,186236880438336E-003	2,000000000000000E+000
2,6193815E-001	4,446606673203284E-003	2,000000000000000E+000
2,7788541E-001	4,705519037896837E-003	2,000000000000000E+000
2,9392391E-001	5,004428345273482E-003	2,000000000000000E+000
3,0992478E-001	5,301294113124133E-003	2,000000000000000E+000
3,2592353E-001	5,631248919396774E-003	2,000000000000000E+000
3,4186655E-001	5,959737480427267E-003	2,000000000000000E+000
3,5787535E-001	6,293578379781034E-003	2,000000000000000E+000
3,5370108E-001	-2,460696279816446E-004	2,000000000000000E+000
3,3772194E-001	-1,407267904141913E-003	2,000000000000000E+000
3,2170996E-001	-2,034755644166980E-003	2,000000000000000E+000
3,0572551E-001	-2,453225797176446E-003	2,000000000000000E+000
2,8974646E-001	-2,766095542837209E-003	2,000000000000000E+000
2,7371746E-001	-3,002943279675992E-003	2,000000000000000E+000
2,5772992E-001	-3,203460213828495E-003	2,000000000000000E+000
2,4171895E-001	-3,360918651095640E-003	2,000000000000000E+000
2,2569744E-001	-3,498063880518496E-003	2,000000000000000E+000
2,0969179E-001	-3,644098617062094E-003	2,000000000000000E+000
1,9374238E-001	-3,758572605066637E-003	2,000000000000000E+000
1,7770280E-001	-3,886281920737634E-003	2,000000000000000E+000
1,6171415E-001	-4,002024128163223E-003	2,000000000000000E+000
1,4578065E-001	-4,129528673527394E-003	2,000000000000000E+000
1,2978140E-001	-4,250931196616452E-003	2,000000000000000E+000
1,1373334E-001	-4,375043640417658E-003	2,000000000000000E+000
9,7712867E-002	-4,504161861000774E-003	2,000000000000000E+000
8,1704050E-002	-4,661122222993662E-003	2,000000000000000E+000
6,5707974E-002	-4,773799224898914E-003	2,000000000000000E+000
7,4923307E-002	5,282352756997488E-004	3,000000000000000E+000
9,0937428E-002	1,304832205379275E-003	3,000000000000000E+000
1,0691122E-001	1,813190388525579E-003	3,000000000000000E+000
1,2287972E-001	2,204640067349022E-003	3,000000000000000E+000
1,3890763E-001	2,524021593975103E-003	3,000000000000000E+000
1,5491113E-001	2,821988057702486E-003	3,000000000000000E+000
1,7089872E-001	3,068137229800231E-003	3,000000000000000E+000
1,8691921E-001	3,298669772751364E-003	3,000000000000000E+000
2,0287390E-001	3,530564717342112E-003	3,000000000000000E+000
2,1890603E-001	3,748719976809103E-003	3,000000000000000E+000
2,3491165E-001	3,977489078048776E-003	3,000000000000000E+000
2,5091410E-001	4,235458941871509E-003	3,000000000000000E+000
2,6685613E-001	4,494767520858062E-003	3,000000000000000E+000
2,8291899E-001	4,769222504465820E-003	3,000000000000000E+000
2,9889813E-001	5,072149630804143E-003	3,000000000000000E+000
3,1491750E-001	5,388104668478860E-003	3,000000000000000E+000
3,3084995E-001	5,698130567098940E-003	3,000000000000000E+000
3,4690759E-001	6,055216642481473E-003	3,000000000000000E+000
[...]
3,0076197E-001	-2,566172684358502E-003	3,000000000000000E+000
2,8474680E-001	-2,849900812280887E-003	3,000000000000000E+000
2,6869661E-001	-3,087303683464090E-003	3,000000000000000E+000
2,5273553E-001	-3,272117326357850E-003	3,000000000000000E+000
2,3672993E-001	-3,426984758536693E-003	3,000000000000000E+000
2,2073703E-001	-3,570035993713330E-003	3,000000000000000E+000
2,0470700E-001	-3,692561130365993E-003	3,000000000000000E+000
1,8873109E-001	-3,816277267307861E-003	3,000000000000000E+000
1,7274559E-001	-3,930030680647970E-003	3,000000000000000E+000
1,5672405E-001	-4,050256689677344E-003	3,000000000000000E+000
1,4070784E-001	-4,181601384819544E-003	3,000000000000000E+000
1,2472873E-001	-4,305411080875055E-003	3,000000000000000E+000
1,0876129E-001	-4,428181218827369E-003	3,000000000000000E+000
9,2770509E-002	-4,560556068301774E-003	3,000000000000000E+000
7,6767005E-002	-4,691224966841715E-003	3,000000000000000E+000
6,3941717E-002	-3,994825452764382E-004	4,000000000000000E+000
7,9948410E-002	7,735010451344554E-004	4,000000000000000E+000
9,5943421E-002	1,452202092170610E-003	4,000000000000000E+000
1,1189070E-001	1,903323314864910E-003	4,000000000000000E+000
1,2788041E-001	2,285346161241059E-003	4,000000000000000E+000
1,4394757E-001	2,603836142346464E-003	4,000000000000000E+000
1,5988213E-001	2,881284371849487E-003	4,000000000000000E+000
1,7591321E-001	3,119364002688814E-003	4,000000000000000E+000
1,9190928E-001	3,367216190680575E-003	4,000000000000000E+000
2,0793825E-001	3,579580608452988E-003	4,000000000000000E+000
2,2389507E-001	3,806479475719653E-003	4,000000000000000E+000
2,3994313E-001	4,053769912894092E-003	4,000000000000000E+000
2,5592119E-001	4,301730347732582E-003	4,000000000000000E+000
2,7189815E-001	4,560871023891707E-003	4,000000000000000E+000
2,8792816E-001	4,861575243719732E-003	4,000000000000000E+000
3,0389348E-001	5,158627392827657E-003	4,000000000000000E+000
3,1988853E-001	5,486272262512813E-003	4,000000000000000E+000
3,3591750E-001	5,816567096594047E-003	4,000000000000000E+000
3,5186586E-001	6,151519055694943E-003	4,000000000000000E+000
3,5967875E-001	6,851445404613046E-004	4,000000000000000E+000
3,4368587E-001	-1,043624350030665E-003	4,000000000000000E+000
3,2768869E-001	-1,803858009124165E-003	4,000000000000000E+000
3,1167355E-001	-2,301260322484365E-003	4,000000000000000E+000
2,9572091E-001	-2,672208697428379E-003	4,000000000000000E+000
2,7967820E-001	-2,944644269518890E-003	4,000000000000000E+000
2,6368427E-001	-3,135722768800191E-003	4,000000000000000E+000
2,4771895E-001	-3,313427944805068E-003	4,000000000000000E+000
2,3176211E-001	-3,458976311069110E-003	4,000000000000000E+000
2,1571617E-001	-3,581266117382444E-003	4,000000000000000E+000
1,9969356E-001	-3,721569051372650E-003	4,000000000000000E+000
1,8370916E-001	-3,824502622794372E-003	4,000000000000000E+000
1,6770354E-001	-3,965706009492143E-003	4,000000000000000E+000
1,5174140E-001	-4,092931682761342E-003	4,000000000000000E+000
1,3572836E-001	-4,210729563055765E-003	4,000000000000000E+000
1,1976834E-001	-4,340739645461639E-003	4,000000000000000E+000
1,0370649E-001	-4,480525669754945E-003	4,000000000000000E+000
8,7714650E-002	-4,618398518181910E-003	4,000000000000000E+000
7,1715392E-002	-4,759846872426962E-003	4,000000000000000E+000
6,8913765E-002	4,671780730960694E-005	4,000000000000000E+000
8,4924705E-002	9,979789264333572E-004	4,000000000000000E+000
1,0097382E-001	1,572688003458708E-003	4,000000000000000E+000
1,1691367E-001	2,025132824605362E-003	4,000000000000000E+000
1,3293946E-001	2,379581989266133E-003	4,000000000000000E+000
1,3477896E-001	2,459245656306543E-003	4,000000000000000E+000

File: 100.txt
EC-Lab ASCII FILE
Nb header lines : 59

Cyclic Voltammetry

Run on channel : 1 (SN 10336)
User :
CE vs. WE compliance from -10 V to 10 V
Electrode connection : standard
Potential control : Ewe
Ewe ctrl range : min = -2,50 V, max = 2,50 V
Safety Limits :
	Do not start on E overload
Acquisition started on : 10/13/2024 13:58:28.596
Technique started on : 10/13/2024 14:05:29.152
Loaded Setting File :  C:\EC-lab data\Neethu\Methods\CV_ECSA.mps
Saved on :
	File : CV_ECSA_04_CV_C01.mpr
	Directory : C:\EC-lab data\Neethu\2024_10_13_Ni90Fe10_CeO2\CV_ECSA\
	Host : 10.54.33.65
Device : VMP3 (SN 0498)
Address : USB
EC-Lab for windows v11.52 (software)
Internet server v11.52 (firmware)
Command interpretor v11.50 (firmware)
Electrode material :
Initial state :
Electrolyte :
Comments :
Electrode surface area : 0,001 cm²
Characteristic mass : 0,001 g
Volume (V) : 0,001 cm³
Thickness (t) : 0,000 cm
Diameter (d) : 0,000 cm
Cell constant (k=t/A) : 0,000 cm-1
Cycle Definition : Charge/Discharge alternance
Ei (V)              0,064
vs.                 Ref
dE/dt               100,000
dE/dt unit          mV/s
E1 (V)              0,364
vs.                 Ref
Step percent        50
N                   10
E range min (V)     -2,500
E range max (V)     2,500
I Range             Auto
I Range min         Unset
I Range max         Unset
I Range init        Unset
Bandwidth           5
E2 (V)              0,064
vs.                 Ref
nc cycles           3
Reverse Scan        1
Ef (V)              0,070
vs.                 Eoc

Ewe/V	<I>/mA	cycle number
6,5675117E-002	1,654355973005295E-002	1,000000000000000E+000
8,1733763E-002	2,230746858509120E-003	1,000000000000000E+000
1,0074151E-001	3,843771261421762E-003	1,000000000000000E+000
1,1667075E-001	4,383414377015366E-003	1,000000000000000E+000
1,3273472E-001	4,903241133433781E-003	1,000000000000000E+000
1,4870110E-001	5,262634389914145E-003	1,000000000000000E+000
1,6467807E-001	5,594097568165228E-003	1,000000000000000E+000
1,8070066E-001	6,069796309020603E-003	1,000000000000000E+000
1,9670311E-001	6,253535454662743E-003	1,000000000000000E+000
2,1273634E-001	6,659141613555339E-003	1,000000000000000E+000
2,2868574E-001	6,986505060518122E-003	1,000000000000000E+000
2,4472849E-001	7,386034618118889E-003	1,000000000000000E+000
2,6069272E-001	7,695173592866131E-003	1,000000000000000E+000
2,7669200E-001	8,140189848038298E-003	1,000000000000000E+000
2,9272097E-001	8,616959951016051E-003	1,000000000000000E+000
3,0868414E-001	9,221981328866848E-003	1,000000000000000E+000
3,2468981E-001	9,687344616395456E-003	1,000000000000000E+000
3,4066570E-001	1,022048009973437E-002	1,000000000000000E+000
3,5671800E-001	1,081488711416673E-002	1,000000000000000E+000
3,4983644E-001	-1,324173283238549E-003	1,000000000000000E+000
3,3078206E-001	-3,082155578037309E-003	1,000000000000000E+000
3,1477860E-001	-4,083443466596570E-003	1,000000000000000E+000
2,9883868E-001	-4,563288397346495E-003	1,000000000000000E+000
2,8281400E-001	-5,046710108419783E-003	1,000000000000000E+000
2,6681790E-001	-5,390689255566223E-003	1,000000000000000E+000
2,5081545E-001	-5,676370266883182E-003	1,000000000000000E+000
2,3486184E-001	-5,824575389851816E-003	1,000000000000000E+000
2,1882331E-001	-6,172767778075954E-003	1,000000000000000E+000
2,0283785E-001	-6,386564757526178E-003	1,000000000000000E+000
1,8680041E-001	-6,548157239497684E-003	1,000000000000000E+000
1,7084885E-001	-6,633374387294879E-003	1,000000000000000E+000
1,5483156E-001	-6,888296229590210E-003	1,000000000000000E+000
1,3882594E-001	-7,089069870643352E-003	1,000000000000000E+000
1,2280333E-001	-7,307868277873941E-003	1,000000000000000E+000
1,0686243E-001	-7,427723826872845E-003	1,000000000000000E+000
9,0856798E-002	-7,714562207790210E-003	1,000000000000000E+000
7,4851170E-002	-7,959976924111142E-003	1,000000000000000E+000
6,5248646E-002	-7,806433847513767E-004	2,000000000000000E+000
8,0915868E-002	2,062545717611414E-003	2,000000000000000E+000
9,6891798E-002	2,904596983070310E-003	2,000000000000000E+000
1,1289424E-001	3,762004273287142E-003	2,000000000000000E+000
1,2889455E-001	4,278265519436310E-003	2,000000000000000E+000
1,4492881E-001	4,621752925838038E-003	2,000000000000000E+000
1,6091219E-001	4,920756444334993E-003	2,000000000000000E+000
1,7687644E-001	5,517253814307205E-003	2,000000000000000E+000
1,9291495E-001	5,828910996367816E-003	2,000000000000000E+000
2,0892166E-001	6,080152930129195E-003	2,000000000000000E+000
2,2490710E-001	6,391447412574483E-003	2,000000000000000E+000
2,4090742E-001	6,950976060276531E-003	2,000000000000000E+000
2,5690880E-001	7,208007499381608E-003	2,000000000000000E+000
2,7291867E-001	7,725986285044596E-003	2,000000000000000E+000
2,8891051E-001	8,058709995465436E-003	2,000000000000000E+000
3,0486625E-001	8,738992180345462E-003	2,000000000000000E+000
3,2087296E-001	9,217559331672355E-003	2,000000000000000E+000
3,3688390E-001	9,784197354747476E-003	2,000000000000000E+000
3,5290644E-001	1,030919590104737E-002	2,000000000000000E+000
3,5885343E-001	6,052830247524673E-004	2,000000000000000E+000
3,4271413E-001	-2,531599008256705E-003	2,000000000000000E+000
3,2670218E-001	-3,542723072314388E-003	2,000000000000000E+000
3,1073183E-001	-4,411686341634108E-003	2,000000000000000E+000
2,9473227E-001	-4,831183740558721E-003	2,000000000000000E+000
2,7868527E-001	-5,247421827435664E-003	2,000000000000000E+000
2,6272419E-001	-5,491446263881152E-003	2,000000000000000E+000
2,4671537E-001	-5,886269873169800E-003	2,000000000000000E+000
2,3076071E-001	-6,066860621811203E-003	2,000000000000000E+000
2,1475402E-001	-6,183616064340106E-003	2,000000000000000E+000
1,9875687E-001	-6,331854309488932E-003	2,000000000000000E+000
1,8273640E-001	-6,676252078856706E-003	2,000000000000000E+000
1,6672440E-001	-6,775695354412557E-003	2,000000000000000E+000
1,5074635E-001	-7,034787253360250E-003	2,000000000000000E+000
1,3476618E-001	-7,088187819641059E-003	2,000000000000000E+000
1,1873510E-001	-7,489913384132602E-003	2,000000000000000E+000
1,0269766E-001	-7,498462610480289E-003	2,000000000000000E+000
8,6722791E-002	-7,803341503151567E-003	2,000000000000000E+000
7,0762776E-002	-7,916376048847765E-003	2,000000000000000E+000
6,9026209E-002	5,625381779484333E-004	3,000000000000000E+000
8,4898181E-002	2,341089447428307E-003	3,000000000000000E+000
1,0094518E-001	3,105609268459385E-003	3,000000000000000E+000
1,1691368E-001	3,794822425738351E-003	3,000000000000000E+000
1,3291399E-001	4,309698800676026E-003	3,000000000000000E+000
1,4893129E-001	4,769948422714776E-003	3,000000000000000E+000
1,6490191E-001	5,043253816337627E-003	3,000000000000000E+000
1,8092452E-001	5,445611309066102E-003	3,000000000000000E+000
1,9687814E-001	5,801089017445020E-003	3,000000000000000E+000
2,1289968E-001	6,228224511788658E-003	3,000000000000000E+000
2,2888623E-001	6,481623929479013E-003	3,000000000000000E+000
2,4494490E-001	6,971554476573771E-003	3,000000000000000E+000
2,6094097E-001	7,301255743287688E-003	3,000000000000000E+000
2,7689251E-001	7,839059343192893E-003	3,000000000000000E+000
2,9292142E-001	8,236261157435393E-003	3,000000000000000E+000
3,0890799E-001	8,884922728207637E-003	3,000000000000000E+000
3,2488284E-001	9,361130535479767E-003	3,000000000000000E+000
3,4085238E-001	9,985868945982995E-003	3,000000000000000E+000
3,5690686E-001	1,052065462944384E-002	3,000000000000000E+000
[...]
3,0670255E-001	-4,515552353647430E-003	3,000000000000000E+000
2,9071704E-001	-5,030229728921129E-003	3,000000000000000E+000
2,7472526E-001	-5,371888120053965E-003	3,000000000000000E+000
2,5873768E-001	-5,626505606616962E-003	3,000000000000000E+000
2,4275327E-001	-5,954091967497424E-003	3,000000000000000E+000
2,2674339E-001	-6,210916575784882E-003	3,000000000000000E+000
2,1071441E-001	-6,416161004987452E-003	3,000000000000000E+000
1,9467483E-001	-6,493708307971233E-003	3,000000000000000E+000
1,7867026E-001	-6,780440493457683E-003	3,000000000000000E+000
1,6271767E-001	-6,941451026553608E-003	3,000000000000000E+000
1,4673753E-001	-7,166364331270499E-003	3,000000000000000E+000
1,3070856E-001	-7,303736890915208E-003	3,000000000000000E+000
1,1470930E-001	-7,543709696215539E-003	3,000000000000000E+000
9,8720647E-002	-7,686481636887427E-003	3,000000000000000E+000
8,2763806E-002	-7,953525647786161E-003	3,000000000000000E+000
6,6744395E-002	-8,146151827531783E-003	3,000000000000000E+000
7,2927907E-002	1,233555033296509E-003	4,000000000000000E+000
8,8936716E-002	2,520506697086002E-003	4,000000000000000E+000
1,0492007E-001	3,297469629210865E-003	4,000000000000000E+000
1,2089173E-001	3,887909418659147E-003	4,000000000000000E+000
1,3693875E-001	4,452010742372517E-003	4,000000000000000E+000
1,5290193E-001	4,811568460960799E-003	4,000000000000000E+000
1,6890970E-001	5,210811735499502E-003	4,000000000000000E+000
1,8489303E-001	5,537442798312378E-003	4,000000000000000E+000
2,0087956E-001	5,927675425886682E-003	4,000000000000000E+000
2,1689899E-001	6,315744783124605E-003	4,000000000000000E+000
2,3291206E-001	6,620259048860256E-003	4,000000000000000E+000
2,4895690E-001	7,095355400653924E-003	4,000000000000000E+000
2,6492965E-001	7,429265566719939E-003	4,000000000000000E+000
2,8091300E-001	7,983645245581636E-003	4,000000000000000E+000
2,9691011E-001	8,381459330040447E-003	4,000000000000000E+000
3,1285849E-001	9,122287772091474E-003	4,000000000000000E+000
3,2888320E-001	9,514037644193091E-003	4,000000000000000E+000
3,4486446E-001	1,009961841353088E-002	4,000000000000000E+000
3,6086795E-001	1,071085249309872E-002	4,000000000000000E+000
3,5071591E-001	-1,572334421931970E-003	4,000000000000000E+000
3,3471873E-001	-3,129627569150095E-003	4,000000000000000E+000
3,1871209E-001	-4,116115250831678E-003	4,000000000000000E+000
3,0272657E-001	-4,677915770621918E-003	4,000000000000000E+000
2,8673899E-001	-5,183534773095730E-003	4,000000000000000E+000
2,7076098E-001	-5,466814592687616E-003	4,000000000000000E+000
2,5472987E-001	-5,740089871121894E-003	4,000000000000000E+000
2,3872426E-001	-5,980272904303613E-003	4,000000000000000E+000
2,2273135E-001	-6,233460080693462E-003	4,000000000000000E+000
2,0674695E-001	-6,420033894553624E-003	4,000000000000000E+000
1,9070736E-001	-6,521986684674609E-003	4,000000000000000E+000
1,7471130E-001	-6,780505609640396E-003	4,000000000000000E+000
1,5873328E-001	-6,998596451012390E-003	4,000000000000000E+000
1,4274673E-001	-7,227236936564095E-003	4,000000000000000E+000
1,2674852E-001	-7,325435158741594E-003	4,000000000000000E+000
1,1072487E-001	-7,545704652228688E-003	4,000000000000000E+000
9,4758481E-002	-7,758656493226393E-003	4,000000000000000E+000
7,8778319E-002	-8,002003838353394E-003	4,000000000000000E+000
6,3326463E-002	-8,277660701423883E-003	4,000000000000000E+000
7,6942042E-002	1,686357178692161E-003	4,000000000000000E+000
9,2914782E-002	2,732275210291846E-003	4,000000000000000E+000
1,0894905E-001	3,488203434244497E-003	4,000000000000000E+000
1,2493666E-001	3,946040251321399E-003	4,000000000000000E+000
1,3462621E-001	4,321211017668247E-003	4,000000000000000E+000