Folder: nife-mo-alkaline-oer-data/fig_si_ecsa/TiO2

Note: README.md
# Raw Data and Plot Scripts for the Manuscript

This repository contains the raw data and plotting scripts for the figures in the following manuscript:

**Varghese, N. K., Mkrtchian, E., Singh, A., Savio, L., Boccia, M., Marzocchi, V., & Comite, A., NiFe on CeO2, TiO2 and ZrO2 Supports as Efficient Oxygen Evolution Reaction Catalysts in Alkaline Media. ACS Appl. Energy Mater. 2025; doi:10.1021/acsaem.4c03268**

Each folder corresponds to a specific figure in the paper, with the folder name matching the figure number/details. Inside each folder, you will find the raw data files and the Python scripts used to generate the plots for that figure.

The **XPS plots** were generated using a commercial software. The folder `fig_3_and_si_xps` contains only the raw XPS data.

If you use this data, please cite the above article.

## License

This project is licensed under the **GNU General Public License (GPL)**, which allows you to freely use, modify and distribute the code, provided that any derivative works are also licensed under GPL.

File: 10.txt
EC-Lab ASCII FILE
Ewe/V	<I>/mA	cycle number
6,3204400E-002	1,964092999696732E-002	1,000000000000000E+000
8,0288857E-002	-9,628641245298126E-004	1,000000000000000E+000
9,6333735E-002	-2,899302980885385E-004	1,000000000000000E+000
1,1227889E-001	8,945090361631072E-005	1,000000000000000E+000
1,2825587E-001	3,451196463391550E-004	1,000000000000000E+000
1,4428802E-001	5,660814887825695E-004	1,000000000000000E+000
1,6024378E-001	7,498895067530788E-004	1,000000000000000E+000
1,7624940E-001	9,247086435843106E-004	1,000000000000000E+000
1,9227521E-001	1,086085484901023E-003	1,000000000000000E+000
2,0829882E-001	1,244127789086634E-003	1,000000000000000E+000
2,2428007E-001	1,403001130071339E-003	1,000000000000000E+000
2,4025919E-001	1,568024105735179E-003	1,000000000000000E+000
2,5626588E-001	1,750674207330494E-003	1,000000000000000E+000
2,7224493E-001	1,956622098482007E-003	1,000000000000000E+000
2,8828242E-001	2,178805624512109E-003	1,000000000000000E+000
3,0424139E-001	2,415972016697871E-003	1,000000000000000E+000
3,2025230E-001	2,667246787933869E-003	1,000000000000000E+000
3,3621126E-001	2,929291271828807E-003	1,000000000000000E+000
3,5226142E-001	3,190617087831789E-003	1,000000000000000E+000
3,5991842E-001	1,917601152888023E-003	1,000000000000000E+000
3,4397006E-001	1,109843123736532E-003	1,000000000000000E+000
3,2795277E-001	6,346386971590248E-004	1,000000000000000E+000
3,1196412E-001	2,747699408587314E-004	1,000000000000000E+000
2,9598290E-001	-1,820005519553649E-005	1,000000000000000E+000
2,7995607E-001	-2,588077859863236E-004	1,000000000000000E+000
2,6396739E-001	-4,624932519416486E-004	1,000000000000000E+000
2,4796815E-001	-6,521557858192193E-004	1,000000000000000E+000
2,3197207E-001	-8,119492318251591E-004	1,000000000000000E+000
2,1595585E-001	-9,566246854201719E-004	1,000000000000000E+000
1,9992580E-001	-1,082732772138783E-003	1,000000000000000E+000
1,8397240E-001	-1,198688261876732E-003	1,000000000000000E+000
1,6797715E-001	-1,306071999823426E-003	1,000000000000000E+000
1,5197259E-001	-1,414248555563442E-003	1,000000000000000E+000
1,3597651E-001	-1,510595817510167E-003	1,000000000000000E+000
1,1998361E-001	-1,604077249390289E-003	1,000000000000000E+000
1,0392919E-001	-1,696473711086178E-003	1,000000000000000E+000
8,8001005E-002	-1,787049108383197E-003	1,000000000000000E+000
7,1998566E-002	-1,872048173498592E-003	1,000000000000000E+000
7,0179261E-002	-6,856719884564414E-004	2,000000000000000E+000
8,6184010E-002	-2,152493164503414E-004	2,000000000000000E+000
1,0215550E-001	7,707516528996543E-005	2,000000000000000E+000
1,1816642E-001	3,076759996997890E-004	2,000000000000000E+000
1,3421874E-001	5,016770870177548E-004	2,000000000000000E+000
1,5018299E-001	6,776302464762307E-004	2,000000000000000E+000
1,6615997E-001	8,333079121830107E-004	2,000000000000000E+000
1,8215711E-001	9,861823902476193E-004	2,000000000000000E+000
1,9821684E-001	1,135006880590313E-003	2,000000000000000E+000
2,1412697E-001	1,292965604618617E-003	2,000000000000000E+000
2,3016338E-001	1,447788283796939E-003	2,000000000000000E+000
2,4617961E-001	1,618010945363766E-003	2,000000000000000E+000
2,6218840E-001	1,802180660888553E-003	2,000000000000000E+000
2,7815267E-001	2,010896065459952E-003	2,000000000000000E+000
2,9419646E-001	2,249991095461021E-003	2,000000000000000E+000
3,1018192E-001	2,494008758394223E-003	2,000000000000000E+000
3,2615149E-001	2,744726760957522E-003	2,000000000000000E+000
3,4216139E-001	3,006538944545251E-003	2,000000000000000E+000
3,5815537E-001	3,258868125461348E-003	2,000000000000000E+000
3,5395446E-001	1,501731315447541E-003	2,000000000000000E+000
3,3798179E-001	8,893393411805537E-004	2,000000000000000E+000
3,2192734E-001	4,653401440885292E-004	2,000000000000000E+000
3,0597049E-001	1,293443500113906E-004	2,000000000000000E+000
2,8996065E-001	-1,404051389815517E-004	2,000000000000000E+000
2,7393377E-001	-3,586549046643321E-004	2,000000000000000E+000
2,5796744E-001	-5,588614132513469E-004	2,000000000000000E+000
2,4197453E-001	-7,366161334411338E-004	2,000000000000000E+000
2,2594662E-001	-8,851054322062870E-004	2,000000000000000E+000
2,0997706E-001	-1,022422116942902E-003	2,000000000000000E+000
1,9398205E-001	-1,141805926265619E-003	2,000000000000000E+000
1,7793506E-001	-1,258028673031795E-003	2,000000000000000E+000
1,6195384E-001	-1,364300180823723E-003	2,000000000000000E+000
1,4600337E-001	-1,470333714813150E-003	2,000000000000000E+000
1,3001683E-001	-1,562502755809374E-003	2,000000000000000E+000
1,1395817E-001	-1,654317816751748E-003	2,000000000000000E+000
9,7974822E-002	-1,735415990373843E-003	2,000000000000000E+000
8,1970252E-002	-1,828356484043912E-003	2,000000000000000E+000
6,5960385E-002	-1,915365501460022E-003	2,000000000000000E+000
7,6148480E-002	-4,904643353290383E-004	3,000000000000000E+000
9,2215627E-002	-1,146366163027328E-004	3,000000000000000E+000
1,0821489E-001	1,511934067650602E-004	3,000000000000000E+000
1,2416536E-001	3,598477743031823E-004	3,000000000000000E+000
1,4018689E-001	5,509849470399803E-004	3,000000000000000E+000
1,5619889E-001	7,191760849781085E-004	3,000000000000000E+000
1,7217904E-001	8,749551087492841E-004	3,000000000000000E+000
1,8814649E-001	1,027262445050945E-003	3,000000000000000E+000
2,0414256E-001	1,178715644561668E-003	3,000000000000000E+000
2,2013548E-001	1,335532273649865E-003	3,000000000000000E+000
2,3617291E-001	1,498372848867870E-003	3,000000000000000E+000
2,5214776E-001	1,669543233421991E-003	3,000000000000000E+000
2,6815128E-001	1,869648626544165E-003	3,000000000000000E+000
2,8415051E-001	2,079519615681077E-003	3,000000000000000E+000
3,0019543E-001	2,319307015568484E-003	3,000000000000000E+000
3,1614903E-001	2,567674449959746E-003	3,000000000000000E+000
3,3214408E-001	2,818936017219028E-003	3,000000000000000E+000
3,4813586E-001	3,087339331546868E-003	3,000000000000000E+000
3,6366004E-001	3,245850680051024E-003	3,000000000000000E+000
3,4798104E-001	1,210312798422011E-003	3,000000000000000E+000
3,3194679E-001	6,966442690302041E-004	3,000000000000000E+000
3,1590930E-001	3,152077885223070E-004	3,000000000000000E+000
2,9999277E-001	9,420236932503112E-006	3,000000000000000E+000
2,8399143E-001	-2,411487439954608E-004	3,000000000000000E+000
2,6795501E-001	-4,510110579168995E-004	3,000000000000000E+000
2,5200561E-001	-6,399959495832219E-004	3,000000000000000E+000
2,3599999E-001	-8,077795318294466E-004	3,000000000000000E+000
2,1996573E-001	-9,480300371554514E-004	3,000000000000000E+000
2,0399722E-001	-1,077259770412366E-003	3,000000000000000E+000
1,8798949E-001	-1,199060574705341E-003	3,000000000000000E+000
1,7196159E-001	-1,307502039034496E-003	3,000000000000000E+000
1,5595172E-001	-1,406104314136661E-003	3,000000000000000E+000
1,3995351E-001	-1,509580004898863E-003	3,000000000000000E+000
1,2396381E-001	-1,606398644206045E-003	3,000000000000000E+000
1,0799635E-001	-1,695781364644601E-003	3,000000000000000E+000
9,1997109E-002	-1,781958995841841E-003	3,000000000000000E+000
7,5994663E-002	-1,872231780133141E-003	3,000000000000000E+000
6,6193759E-002	-9,161478923218678E-004	4,000000000000000E+000
8,2171805E-002	-3,404990632050074E-004	4,000000000000000E+000
9,8188028E-002	-1,167867898473955E-005	4,000000000000000E+000
1,1416928E-001	2,225277217307192E-004	4,000000000000000E+000
1,3018338E-001	4,271170233304611E-004	4,000000000000000E+000
1,4618795E-001	6,086626249102514E-004	4,000000000000000E+000
1,6218190E-001	7,712494286722538E-004	4,000000000000000E+000
1,7813237E-001	9,237074815178804E-004	4,000000000000000E+000
1,9419740E-001	1,068769612309685E-003	4,000000000000000E+000
2,1017969E-001	1,222158118050883E-003	4,000000000000000E+000
2,2615880E-001	1,376122320733780E-003	4,000000000000000E+000
2,4218248E-001	1,545911405965279E-003	4,000000000000000E+000
2,5818703E-001	1,728463038927180E-003	4,000000000000000E+000
2,7417672E-001	1,931824391013599E-003	4,000000000000000E+000
2,9014203E-001	2,154667096975683E-003	4,000000000000000E+000
3,0619755E-001	2,398845947162168E-003	4,000000000000000E+000
3,2213843E-001	2,647214150110152E-003	4,000000000000000E+000
3,3817485E-001	2,911318553001544E-003	4,000000000000000E+000
3,5416055E-001	3,169252592417363E-003	4,000000000000000E+000
3,5799196E-001	1,709691534213364E-003	4,000000000000000E+000
3,4192058E-001	9,855721440948824E-004	4,000000000000000E+000
3,2594785E-001	5,376372176181541E-004	4,000000000000000E+000
3,0997616E-001	1,895240819911074E-004	4,000000000000000E+000
2,9397583E-001	-9,854803798537695E-005	4,000000000000000E+000
2,7795959E-001	-3,366323729462294E-004	4,000000000000000E+000
2,6199108E-001	-5,399471885067634E-004	4,000000000000000E+000
2,4597381E-001	-7,154875914878837E-004	4,000000000000000E+000
2,2996287E-001	-8,653577644037345E-004	4,000000000000000E+000
2,1392012E-001	-1,007498966727229E-003	4,000000000000000E+000
1,9798027E-001	-1,128555305142609E-003	4,000000000000000E+000
1,8203087E-001	-1,241158829846732E-003	4,000000000000000E+000
1,6592234E-001	-1,354818032268668E-003	4,000000000000000E+000
1,4998461E-001	-1,454051886631298E-003	4,000000000000000E+000
1,3400339E-001	-1,551112507446235E-003	4,000000000000000E+000
1,1795533E-001	-1,649103086459006E-003	4,000000000000000E+000
1,0198258E-001	-1,735571257422984E-003	4,000000000000000E+000
8,5992880E-002	-1,821040366377459E-003	4,000000000000000E+000
6,9978759E-002	-1,910345237572789E-003	4,000000000000000E+000
7,2142832E-002	-6,323136730551826E-004	4,000000000000000E+000
8,8168606E-002	-2,060843491565097E-004	4,000000000000000E+000
1,0418060E-001	7,983109246183565E-005	4,000000000000000E+000
1,2017243E-001	2,980426309235882E-004	4,000000000000000E+000
1,3615578E-001	4,826298258598788E-004	4,000000000000000E+000
1,5214550E-001	6,546310998803342E-004	4,000000000000000E+000
1,6817659E-001	8,162992527542372E-004	4,000000000000000E+000
1,8415943E-001	9,636936343357730E-004	4,000000000000000E+000
2,0015495E-001	1,113341337730632E-003	4,000000000000000E+000
2,1616271E-001	1,266689158876907E-003	4,000000000000000E+000
2,3219295E-001	1,424277210715526E-003	4,000000000000000E+000
2,4820155E-001	1,591275542051769E-003	4,000000000000000E+000
2,4928258E-001	1,716178478091024E-003	4,000000000000000E+000

File: 20.txt
EC-Lab ASCII FILE
Ewe/V	<I>/mA	cycle number
6,3032545E-002	-6,878280639648438E-002	1,000000000000000E+000
8,0858514E-002	-2,641841467872538E-003	1,000000000000000E+000
9,6875817E-002	-1,501761417953440E-003	1,000000000000000E+000
1,1284430E-001	-8,694536557380130E-004	1,000000000000000E+000
1,2882766E-001	-5,532201645716366E-004	1,000000000000000E+000
1,4484601E-001	-2,538317715637577E-004	1,000000000000000E+000
1,6083148E-001	7,733677085673837E-005	1,000000000000000E+000
1,7682014E-001	2,090053958286086E-004	1,000000000000000E+000
1,9282047E-001	5,027786416610114E-004	1,000000000000000E+000
2,0880061E-001	6,929761837821194E-004	1,000000000000000E+000
2,2475320E-001	8,799461668947608E-004	1,000000000000000E+000
2,4084368E-001	1,089641505266758E-003	1,000000000000000E+000
2,5681722E-001	1,402155008324866E-003	1,000000000000000E+000
2,7280083E-001	1,632238417591409E-003	1,000000000000000E+000
2,8882027E-001	1,945704133074990E-003	1,000000000000000E+000
3,0481637E-001	2,306052967065216E-003	1,000000000000000E+000
3,2079649E-001	2,667135964589694E-003	1,000000000000000E+000
3,3682761E-001	3,043870030389237E-003	1,000000000000000E+000
3,5281944E-001	3,367775936365225E-003	1,000000000000000E+000
3,5998526E-001	3,070002701456860E-003	1,000000000000000E+000
3,4400508E-001	1,982819329348920E-003	1,000000000000000E+000
3,2799736E-001	1,436655913039424E-003	1,000000000000000E+000
3,1198215E-001	9,983479657025597E-004	1,000000000000000E+000
2,9603809E-001	6,924308899114175E-004	1,000000000000000E+000
2,8003034E-001	4,612393219960917E-004	1,000000000000000E+000
2,6400241E-001	1,577391660534718E-004	1,000000000000000E+000
2,4802120E-001	4,217670395321400E-006	1,000000000000000E+000
2,3205376E-001	-1,915624667432241E-004	1,000000000000000E+000
2,1601948E-001	-3,185622428510991E-004	1,000000000000000E+000
2,0001808E-001	-4,793966061495463E-004	1,000000000000000E+000
1,8403584E-001	-7,183549403264431E-004	1,000000000000000E+000
1,6798671E-001	-7,807598665547436E-004	1,000000000000000E+000
1,5201713E-001	-9,723868756568478E-004	1,000000000000000E+000
1,3602212E-001	-1,121982350906803E-003	1,000000000000000E+000
1,2004196E-001	-1,300590316767970E-003	1,000000000000000E+000
1,0405436E-001	-1,433691426309794E-003	1,000000000000000E+000
8,8025413E-002	-1,546997042059621E-003	1,000000000000000E+000
7,2072811E-002	-1,674191289322585E-003	1,000000000000000E+000
7,0165463E-002	-1,709570351926641E-003	2,000000000000000E+000
8,6153053E-002	-1,156863371110504E-003	2,000000000000000E+000
1,0216080E-001	-7,390288517651940E-004	2,000000000000000E+000
1,1811232E-001	-4,411937964471646E-004	2,000000000000000E+000
1,3416357E-001	-2,893906270889637E-004	2,000000000000000E+000
1,5008114E-001	-7,335808260748919E-005	2,000000000000000E+000
1,6614407E-001	2,220599388709633E-004	2,000000000000000E+000
1,8211256E-001	3,237670455712731E-004	2,000000000000000E+000
1,9814362E-001	5,545223642137113E-004	2,000000000000000E+000
2,1411216E-001	7,744308759356482E-004	2,000000000000000E+000
2,3013793E-001	9,045402700427977E-004	2,000000000000000E+000
2,4614885E-001	1,139383776885720E-003	2,000000000000000E+000
2,6210353E-001	1,412562809980077E-003	2,000000000000000E+000
2,7810174E-001	1,729530128243457E-003	2,000000000000000E+000
2,9416886E-001	1,979730143906032E-003	2,000000000000000E+000
3,1008860E-001	2,327428236808544E-003	2,000000000000000E+000
3,2610378E-001	2,685289668550944E-003	2,000000000000000E+000
3,4209666E-001	3,091637609705461E-003	2,000000000000000E+000
3,5808107E-001	3,489947570617186E-003	2,000000000000000E+000
3,5401085E-001	2,402288119340377E-003	2,000000000000000E+000
3,3799344E-001	1,699144237054246E-003	2,000000000000000E+000
3,2200265E-001	1,192698493202604E-003	2,000000000000000E+000
3,0601719E-001	8,756663695142636E-004	2,000000000000000E+000
2,9001895E-001	5,188308612863110E-004	2,000000000000000E+000
2,7400485E-001	2,321021525286027E-004	2,000000000000000E+000
2,5801304E-001	1,069475245803575E-004	2,000000000000000E+000
2,4202757E-001	-6,767529843003763E-005	2,000000000000000E+000
2,2601132E-001	-2,438249351362841E-004	2,000000000000000E+000
2,1002799E-001	-4,768204456400715E-004	2,000000000000000E+000
1,9404359E-001	-6,057626866554193E-004	2,000000000000000E+000
1,7800400E-001	-8,065594617653047E-004	2,000000000000000E+000
1,6201004E-001	-8,922910324713467E-004	2,000000000000000E+000
1,4599381E-001	-1,069130474728876E-003	2,000000000000000E+000
1,3003592E-001	-1,218095070844020E-003	2,000000000000000E+000
1,1402076E-001	-1,346945858588071E-003	2,000000000000000E+000
9,8050125E-002	-1,509522243294571E-003	2,000000000000000E+000
8,2063600E-002	-1,601496660056358E-003	2,000000000000000E+000
6,6015542E-002	-1,764638905856201E-003	2,000000000000000E+000
7,6125145E-002	-1,459703214937625E-003	3,000000000000000E+000
9,2136078E-002	-9,850052617231837E-004	3,000000000000000E+000
1,0818307E-001	-6,548712380107565E-004	3,000000000000000E+000
1,2407520E-001	-4,226037763820152E-004	3,000000000000000E+000
1,4010626E-001	-1,782455537619608E-004	3,000000000000000E+000
1,5611720E-001	4,863678167213122E-005	3,000000000000000E+000
1,7210586E-001	2,203739772952493E-004	3,000000000000000E+000
1,8811466E-001	3,944161139602144E-004	3,000000000000000E+000
2,0408741E-001	5,744652693027621E-004	3,000000000000000E+000
2,2009729E-001	7,256140591683398E-004	3,000000000000000E+000
2,3610076E-001	1,070255667526807E-003	3,000000000000000E+000
2,5212231E-001	1,253950884877971E-003	3,000000000000000E+000
2,6811734E-001	1,473487978336782E-003	3,000000000000000E+000
2,8414100E-001	1,781742521508790E-003	3,000000000000000E+000
3,0013070E-001	2,131055859468628E-003	3,000000000000000E+000
3,1611511E-001	2,436395189660177E-003	3,000000000000000E+000
3,3208996E-001	2,843807322885056E-003	3,000000000000000E+000
3,4809667E-001	3,162127568901718E-003	3,000000000000000E+000
3,6346909E-001	3,328702909251056E-003	3,000000000000000E+000
3,4801814E-001	2,095039990342266E-003	3,000000000000000E+000
3,3201891E-001	1,439809694029795E-003	3,000000000000000E+000
3,1600693E-001	9,981121194397469E-004	3,000000000000000E+000
3,0004054E-001	7,192621344445285E-004	3,000000000000000E+000
2,8403702E-001	4,584185391515207E-004	3,000000000000000E+000
2,6801440E-001	1,906275948613261E-004	3,000000000000000E+000
2,5205547E-001	-3,577428977947700E-005	3,000000000000000E+000
2,3605834E-001	-2,085519717083019E-004	3,000000000000000E+000
2,2000924E-001	-3,187420304331884E-004	3,000000000000000E+000
2,0400997E-001	-5,315264425639179E-004	3,000000000000000E+000
1,8803191E-001	-7,056275700594791E-004	3,000000000000000E+000
1,7201355E-001	-8,308529142798064E-004	3,000000000000000E+000
1,5604082E-001	-9,184709057350384E-004	3,000000000000000E+000
1,4008719E-001	-1,133807830329816E-003	3,000000000000000E+000
1,2400730E-001	-1,236425684421897E-003	3,000000000000000E+000
1,0800909E-001	-1,385275457677280E-003	3,000000000000000E+000
9,2066057E-002	-1,514509429667939E-003	3,000000000000000E+000
7,6015875E-002	-1,679484984372773E-003	3,000000000000000E+000
6,6169359E-002	-2,043509567859765E-003	4,000000000000000E+000
8,2162254E-002	-1,288042645346310E-003	4,000000000000000E+000
9,8133944E-002	-9,274283725567798E-004	4,000000000000000E+000
1,1414169E-001	-6,335872355217953E-004	4,000000000000000E+000
1,3012503E-001	-3,480698596494795E-004	4,000000000000000E+000
1,4614126E-001	-1,298767787695264E-004	4,000000000000000E+000
1,6209491E-001	9,422606423838782E-005	4,000000000000000E+000
1,7811327E-001	2,467955155814839E-004	4,000000000000000E+000
1,9411784E-001	4,379981145306109E-004	4,000000000000000E+000
2,1013089E-001	6,475814753533382E-004	4,000000000000000E+000
2,2610149E-001	9,007379298964259E-004	4,000000000000000E+000
2,4209863E-001	1,030405070600360E-003	4,000000000000000E+000
2,5812444E-001	1,257882823783467E-003	4,000000000000000E+000
2,7416927E-001	1,535474342121975E-003	4,000000000000000E+000
2,9010174E-001	1,876764572384844E-003	4,000000000000000E+000
3,0611265E-001	2,179928557813616E-003	4,000000000000000E+000
3,2210982E-001	2,600165258896867E-003	4,000000000000000E+000
3,3815894E-001	3,003760362776962E-003	4,000000000000000E+000
3,5410163E-001	3,374031241074705E-003	4,000000000000000E+000
3,5800254E-001	2,779787249706997E-003	4,000000000000000E+000
3,4198633E-001	1,825135838085211E-003	4,000000000000000E+000
3,2600406E-001	1,332525835500243E-003	4,000000000000000E+000
3,1003875E-001	8,973541955330996E-004	4,000000000000000E+000
2,9402465E-001	6,163878770798358E-004	4,000000000000000E+000
2,7801368E-001	3,381744954569707E-004	4,000000000000000E+000
2,6205474E-001	1,201936720547196E-004	4,000000000000000E+000
2,4601732E-001	-6,318325309469729E-005	4,000000000000000E+000
2,3002018E-001	-1,794186882930439E-004	4,000000000000000E+000
2,1401985E-001	-3,660379571678498E-004	4,000000000000000E+000
1,9803755E-001	-5,866981041709497E-004	4,000000000000000E+000
1,8203297E-001	-7,500290102716162E-004	4,000000000000000E+000
1,6599767E-001	-8,760737691941491E-004	4,000000000000000E+000
1,5002067E-001	-1,018987294810573E-003	4,000000000000000E+000
1,3405536E-001	-1,165305007075568E-003	4,000000000000000E+000
1,1799670E-001	-1,285469494733761E-003	4,000000000000000E+000
1,0203033E-001	-1,470685701540921E-003	4,000000000000000E+000
8,6025767E-002	-1,567892015910068E-003	4,000000000000000E+000
7,0009522E-002	-1,730376954633855E-003	4,000000000000000E+000
7,2135404E-002	-1,672696911791045E-003	4,000000000000000E+000
8,8147394E-002	-1,081430386286095E-003	4,000000000000000E+000
1,0412756E-001	-7,825991092431650E-004	4,000000000000000E+000
1,2015016E-001	-4,950980660312243E-004	4,000000000000000E+000
1,3614731E-001	-2,761710118108938E-004	4,000000000000000E+000
1,5212642E-001	-1,670087275400588E-005	4,000000000000000E+000
1,6816491E-001	1,064435397316391E-004	4,000000000000000E+000
1,8414402E-001	3,405501804241732E-004	4,000000000000000E+000
2,0010082E-001	5,503015119959154E-004	4,000000000000000E+000
2,1610647E-001	8,080856457834476E-004	4,000000000000000E+000
2,3214179E-001	9,243800126383858E-004	4,000000000000000E+000
2,4812730E-001	1,089903754634471E-003	4,000000000000000E+000
2,4933986E-001	2,057220948245231E-003	4,000000000000000E+000