Folder: nife-mo-alkaline-oer-data/fig_si_ecsa/TiO2 (part 4)

File: 500.txt
EC-Lab ASCII FILE
Ewe/V	<I>/mA	cycle number
7,7162653E-002	-3,246048092842102E-002	1,000000000000000E+000
9,2991099E-002	8,533438839650548E-003	1,000000000000000E+000
1,0798682E-001	1,314790959602558E-002	1,000000000000000E+000
1,2299422E-001	1,460155524505866E-002	1,000000000000000E+000
1,5298566E-001	1,834144488020684E-002	1,000000000000000E+000
1,6804078E-001	1,910980620575886E-002	1,000000000000000E+000
1,8303123E-001	2,024076898507901E-002	1,000000000000000E+000
2,1301205E-001	2,057707128026081E-002	1,000000000000000E+000
2,2803113E-001	2,261503231622756E-002	1,000000000000000E+000
2,4303852E-001	2,385394667200871E-002	1,000000000000000E+000
2,5799289E-001	2,449764899938597E-002	1,000000000000000E+000
2,7297801E-001	2,565535469572444E-002	1,000000000000000E+000
2,8801301E-001	2,704628787978433E-002	1,000000000000000E+000
3,0303627E-001	2,815245549370754E-002	1,000000000000000E+000
3,1796303E-001	2,980728718628400E-002	1,000000000000000E+000
3,3296409E-001	3,210118744108412E-002	1,000000000000000E+000
3,4796089E-001	3,405793854876216E-002	1,000000000000000E+000
3,6300963E-001	3,603555995586144E-002	1,000000000000000E+000
3,5199621E-001	-9,440721875459232E-003	1,000000000000000E+000
3,3697078E-001	-1,471297284802453E-002	1,000000000000000E+000
3,2198992E-001	-1,709133775269338E-002	1,000000000000000E+000
2,9203561E-001	-1,937053353807032E-002	1,000000000000000E+000
2,7701762E-001	-1,991815106278716E-002	1,000000000000000E+000
2,6200807E-001	-2,067059390174109E-002	1,000000000000000E+000
2,3204845E-001	-2,231555759863110E-002	1,000000000000000E+000
2,1701667E-001	-2,241335689622143E-002	1,000000000000000E+000
2,0202518E-001	-2,297754712344613E-002	1,000000000000000E+000
1,8702415E-001	-2,321537579498708E-002	1,000000000000000E+000
1,7202418E-001	-2,383580477301922E-002	1,000000000000000E+000
1,5701042E-001	-2,426474050500677E-002	1,000000000000000E+000
1,4201045E-001	-2,495778368150546E-002	1,000000000000000E+000
1,2703700E-001	-2,554188816025596E-002	1,000000000000000E+000
1,1204765E-001	-2,629389327759979E-002	1,000000000000000E+000
9,6994624E-002	-2,656801327975694E-002	1,000000000000000E+000
8,2086936E-002	-2,760453764777693E-002	1,000000000000000E+000
6,7018017E-002	-2,810003971858851E-002	1,000000000000000E+000
7,2308317E-002	7,370501150237241E-003	2,000000000000000E+000
8,7298743E-002	1,350362839790861E-002	2,000000000000000E+000
1,1730293E-001	1,657195000613380E-002	2,000000000000000E+000
1,3235277E-001	1,787696148757184E-002	2,000000000000000E+000
1,4731559E-001	1,867008561061489E-002	2,000000000000000E+000
1,7724340E-001	2,007792698027008E-002	2,000000000000000E+000
1,9230701E-001	2,120857155629582E-002	2,000000000000000E+000
2,0727727E-001	2,169381644206528E-002	2,000000000000000E+000
2,2233985E-001	2,245038509782821E-002	2,000000000000000E+000
2,3732601E-001	2,353819635593234E-002	2,000000000000000E+000
2,5230369E-001	2,467722349239110E-002	2,000000000000000E+000
2,6728672E-001	2,526981704350978E-002	2,000000000000000E+000
2,8229624E-001	2,659294642580790E-002	2,000000000000000E+000
2,9733863E-001	2,808500482448528E-002	2,000000000000000E+000
3,1223041E-001	2,953917944655088E-002	2,000000000000000E+000
3,2726219E-001	3,088643310871309E-002	2,000000000000000E+000
3,4228867E-001	3,329677061103420E-002	2,000000000000000E+000
3,5729286E-001	3,534909335333709E-002	2,000000000000000E+000
3,5038498E-001	-1,016167384097925E-002	2,000000000000000E+000
3,2796231E-001	-1,607139045336223E-002	2,000000000000000E+000
3,1301329E-001	-1,811257212911083E-002	2,000000000000000E+000
2,9798254E-001	-1,890074238751063E-002	2,000000000000000E+000
2,6797628E-001	-2,061021611007163E-002	2,000000000000000E+000
2,5300917E-001	-2,117875888870918E-002	2,000000000000000E+000
2,3804949E-001	-2,153663459264660E-002	2,000000000000000E+000
2,2305483E-001	-2,245954979581355E-002	2,000000000000000E+000
2,0802622E-001	-2,270378152914218E-002	2,000000000000000E+000
1,9304322E-001	-2,315542380044150E-002	2,000000000000000E+000
1,7801142E-001	-2,377712671497856E-002	2,000000000000000E+000
1,6304010E-001	-2,443030668614984E-002	2,000000000000000E+000
1,4801043E-001	-2,447324786690937E-002	2,000000000000000E+000
1,3304760E-001	-2,590694330218762E-002	2,000000000000000E+000
1,1800945E-001	-2,598574839147560E-002	2,000000000000000E+000
1,0302218E-001	-2,629962353199117E-002	2,000000000000000E+000
8,8033892E-002	-2,714002012807115E-002	2,000000000000000E+000
7,3012710E-002	-2,780353138829605E-002	2,000000000000000E+000
6,6525802E-002	-3,842993550266405E-003	3,000000000000000E+000
8,1323154E-002	1,220953723208770E-002	3,000000000000000E+000
9,6319936E-002	1,439799906478986E-002	3,000000000000000E+000
1,2628275E-001	1,732828426692221E-002	3,000000000000000E+000
1,4130288E-001	1,805702470301185E-002	3,000000000000000E+000
1,5632831E-001	1,941049948719514E-002	3,000000000000000E+000
1,8630704E-001	2,066220790220541E-002	3,000000000000000E+000
2,0127307E-001	2,157426529002904E-002	3,000000000000000E+000
2,1627302E-001	2,228948578623302E-002	3,000000000000000E+000
2,3131967E-001	2,304839104827905E-002	3,000000000000000E+000
2,4634299E-001	2,431383113879643E-002	3,000000000000000E+000
2,6131219E-001	2,499651077394238E-002	3,000000000000000E+000
2,7631429E-001	2,582194790658027E-002	3,000000000000000E+000
2,9130894E-001	2,753945514632505E-002	3,000000000000000E+000
3,0626222E-001	2,884588837696350E-002	3,000000000000000E+000
3,2129189E-001	3,038301006017713E-002	3,000000000000000E+000
3,3623037E-001	3,221083501234207E-002	3,000000000000000E+000
3,5128653E-001	3,416854156845753E-002	3,000000000000000E+000
3,6362186E-001	3,528440743684769E-002	3,000000000000000E+000
3,4898561E-001	-1,152523149418510E-002	3,000000000000000E+000
3,1896549E-001	-1,737746227303834E-002	3,000000000000000E+000
3,0397403E-001	-1,849993558607826E-002	3,000000000000000E+000
2,8900698E-001	-1,935532207304885E-002	3,000000000000000E+000
2,5904313E-001	-2,112807224208757E-002	3,000000000000000E+000
2,4400812E-001	-2,152612931968184E-002	3,000000000000000E+000
2,2900178E-001	-2,186950196038301E-002	3,000000000000000E+000
2,1401879E-001	-2,272786910705493E-002	3,000000000000000E+000
1,9900608E-001	-2,273989374468022E-002	3,000000000000000E+000
1,8401776E-001	-2,395302154966172E-002	3,000000000000000E+000
1,6898599E-001	-2,410231940019802E-002	3,000000000000000E+000
1,5400617E-001	-2,433770875520871E-002	3,000000000000000E+000
1,3903062E-001	-2,533351942838630E-002	3,000000000000000E+000
1,2396593E-001	-2,565312824743970E-002	3,000000000000000E+000
1,0902219E-001	-2,593647700187934E-002	3,000000000000000E+000
9,4054028E-002	-2,706227704483244E-002	3,000000000000000E+000
7,9031788E-002	-2,771121425717460E-002	3,000000000000000E+000
6,4159118E-002	-2,824126479806305E-002	3,000000000000000E+000
7,5299837E-002	9,784129872868030E-003	4,000000000000000E+000
9,0315714E-002	1,378255795073830E-002	4,000000000000000E+000
1,0530189E-001	1,574341194504492E-002	4,000000000000000E+000
1,3532516E-001	1,758935595737254E-002	4,000000000000000E+000
1,5030923E-001	1,880239166348474E-002	4,000000000000000E+000
1,6529965E-001	1,954740483557142E-002	4,000000000000000E+000
1,9529112E-001	2,080630645569831E-002	4,000000000000000E+000
2,1031865E-001	2,189323380662245E-002	4,000000000000000E+000
2,2527619E-001	2,232977435050998E-002	4,000000000000000E+000
2,4032602E-001	2,373941950928485E-002	4,000000000000000E+000
2,5534081E-001	2,458069985126121E-002	4,000000000000000E+000
2,7027076E-001	2,535930456401223E-002	4,000000000000000E+000
2,8529832E-001	2,648588178029371E-002	4,000000000000000E+000
3,0031529E-001	2,798766586501100E-002	4,000000000000000E+000
3,1528234E-001	2,944467064864709E-002	4,000000000000000E+000
3,3031309E-001	3,131671253221525E-002	4,000000000000000E+000
3,4528762E-001	3,374406387067408E-002	4,000000000000000E+000
3,6025041E-001	3,547469222798494E-002	4,000000000000000E+000
3,5492834E-001	-7,809976811990471E-003	4,000000000000000E+000
3,3995277E-001	-1,412692374631458E-002	4,000000000000000E+000
3,1002495E-001	-1,815679128998859E-002	4,000000000000000E+000
2,9502708E-001	-1,929801369078629E-002	4,000000000000000E+000
2,7999640E-001	-1,979964227696955E-002	4,000000000000000E+000
2,5001019E-001	-2,100884045163787E-002	4,000000000000000E+000
2,3501346E-001	-2,206722375760573E-002	4,000000000000000E+000
2,1998908E-001	-2,229925149772005E-002	4,000000000000000E+000
2,0499016E-001	-2,292834701964047E-002	4,000000000000000E+000
1,8994670E-001	-2,349862070089637E-002	4,000000000000000E+000
1,7495520E-001	-2,385985716763467E-002	4,000000000000000E+000
1,6000299E-001	-2,411218899376558E-002	4,000000000000000E+000
1,4500090E-001	-2,481453479534435E-002	4,000000000000000E+000
1,3005397E-001	-2,567081074246541E-002	4,000000000000000E+000
1,1501686E-001	-2,593237393860659E-002	4,000000000000000E+000
1,0000311E-001	-2,638182386726837E-002	4,000000000000000E+000
8,5002072E-002	-2,755583315673799E-002	4,000000000000000E+000
7,0038170E-002	-2,786291673692182E-002	4,000000000000000E+000
6,9405928E-002	3,786754085846654E-003	4,000000000000000E+000
9,9280678E-002	1,476637054434427E-002	4,000000000000000E+000
1,1431355E-001	1,647714159783695E-002	4,000000000000000E+000
1,2929972E-001	1,774960818248572E-002	4,000000000000000E+000
1,5933466E-001	1,936585279003746E-002	4,000000000000000E+000
1,7430070E-001	1,960286859038108E-002	4,000000000000000E+000
1,8930173E-001	2,101293859353370E-002	4,000000000000000E+000
2,0427833E-001	2,176027733447780E-002	4,000000000000000E+000
2,1928045E-001	2,239382885454688E-002	4,000000000000000E+000
2,3434727E-001	2,322492315094371E-002	4,000000000000000E+000
2,4899295E-001	2,416517257734085E-002	4,000000000000000E+000
2,4943535E-001	2,418544143438339E-002	4,000000000000000E+000