Folder: nife-mo-alkaline-oer-data/fig_si_ecsa/TiO2 (part 3)

File: 200.txt
EC-Lab ASCII FILE
Ewe/V	<I>/mA	cycle number
6,8379074E-002	-5,087280645966530E-002	1,000000000000000E+000
8,5048757E-002	6,145325237903142E-004	1,000000000000000E+000
1,0704674E-001	4,477531623334387E-003	1,000000000000000E+000
1,2906036E-001	6,666249438074534E-003	1,000000000000000E+000
1,4506957E-001	7,367028828329365E-003	1,000000000000000E+000
1,6104014E-001	7,952043193406394E-003	1,000000000000000E+000
1,7702328E-001	8,929489004251723E-003	1,000000000000000E+000
1,9303334E-001	9,436476053699825E-003	1,000000000000000E+000
2,0906772E-001	1,009433119328271E-002	1,000000000000000E+000
2,2506389E-001	1,046754623067424E-002	1,000000000000000E+000
2,4103232E-001	1,135555571967085E-002	1,000000000000000E+000
2,5707185E-001	1,181409886620795E-002	1,000000000000000E+000
2,7306324E-001	1,269818686093704E-002	1,000000000000000E+000
2,8905383E-001	1,329776585010806E-002	1,000000000000000E+000
3,0505562E-001	1,451178994912798E-002	1,000000000000000E+000
3,2105586E-001	1,538671827232902E-002	1,000000000000000E+000
3,3701238E-001	1,660947328618147E-002	1,000000000000000E+000
3,5305446E-001	1,760409958660612E-002	1,000000000000000E+000
3,6005682E-001	5,284239983093580E-004	1,000000000000000E+000
3,4410152E-001	-3,993621752393345E-003	1,000000000000000E+000
3,2806861E-001	-5,720836211643758E-003	1,000000000000000E+000
3,1204194E-001	-6,949134083460325E-003	1,000000000000000E+000
2,9608631E-001	-7,742350317461025E-003	1,000000000000000E+000
2,8010139E-001	-8,204424466136728E-003	1,000000000000000E+000
2,6408482E-001	-8,755746682916010E-003	1,000000000000000E+000
2,4808823E-001	-9,226682552335587E-003	1,000000000000000E+000
2,3215890E-001	-9,555012938934940E-003	1,000000000000000E+000
2,1607766E-001	-1,003267045036239E-002	1,000000000000000E+000
2,0008449E-001	-1,043001355670140E-002	1,000000000000000E+000
1,8409312E-001	-1,070725201895004E-002	1,000000000000000E+000
1,6810821E-001	-1,102588143955718E-002	1,000000000000000E+000
1,5212853E-001	-1,143804872795454E-002	1,000000000000000E+000
1,3608985E-001	-1,186195192332723E-002	1,000000000000000E+000
1,2009279E-001	-1,224970888407287E-002	1,000000000000000E+000
1,0410138E-001	-1,261666594109555E-002	1,000000000000000E+000
8,8113450E-002	-1,300944468841241E-002	1,000000000000000E+000
7,2063461E-002	-1,331313315809391E-002	1,000000000000000E+000
7,0181429E-002	2,697725344126455E-003	2,000000000000000E+000
8,6161643E-002	4,596070802108464E-003	2,000000000000000E+000
1,0214394E-001	5,813102875950091E-003	2,000000000000000E+000
1,1817146E-001	6,712529420047263E-003	2,000000000000000E+000
1,3416992E-001	7,473827211430500E-003	2,000000000000000E+000
1,5017007E-001	8,091004006849312E-003	2,000000000000000E+000
1,6612579E-001	8,722462962949734E-003	2,000000000000000E+000
1,8219317E-001	9,182211218301192E-003	2,000000000000000E+000
1,9814268E-001	9,856701813671129E-003	2,000000000000000E+000
2,1419345E-001	1,032699516714355E-002	2,000000000000000E+000
2,3015872E-001	1,091991632742781E-002	2,000000000000000E+000
2,4613976E-001	1,148537839490808E-002	2,000000000000000E+000
2,6220012E-001	1,214036756842374E-002	2,000000000000000E+000
2,7815288E-001	1,284373616094264E-002	2,000000000000000E+000
2,9415303E-001	1,374925191513560E-002	2,000000000000000E+000
3,1016868E-001	1,464526505928510E-002	2,000000000000000E+000
3,2616612E-001	1,567825122070975E-002	2,000000000000000E+000
3,4210289E-001	1,685285377243421E-002	2,000000000000000E+000
3,5814115E-001	1,799281559678179E-002	2,000000000000000E+000
3,5506773E-001	-1,807150778957928E-003	2,000000000000000E+000
3,3904263E-001	-4,825505974068875E-003	2,000000000000000E+000
3,2304046E-001	-6,206589717887397E-003	2,000000000000000E+000
3,0707809E-001	-7,233605089467063E-003	2,000000000000000E+000
2,9112038E-001	-7,976483878006868E-003	2,000000000000000E+000
2,7511030E-001	-8,620057628583977E-003	2,000000000000000E+000
2,5913364E-001	-8,882232561270242E-003	2,000000000000000E+000
2,4312319E-001	-9,419620856946975E-003	2,000000000000000E+000
2,2709052E-001	-9,798060146997753E-003	2,000000000000000E+000
2,1108525E-001	-1,026829391313103E-002	2,000000000000000E+000
1,9510646E-001	-1,050631961731016E-002	2,000000000000000E+000
1,7906512E-001	-1,085872076857250E-002	2,000000000000000E+000
1,6300818E-001	-1,122621382042283E-002	2,000000000000000E+000
1,4712961E-001	-1,168308539672583E-002	2,000000000000000E+000
1,3112390E-001	-1,208555782250186E-002	2,000000000000000E+000
1,1511037E-001	-1,246739051020992E-002	2,000000000000000E+000
9,9101603E-002	-1,279528610178776E-002	2,000000000000000E+000
8,3118439E-002	-1,331007217347426E-002	2,000000000000000E+000
6,7112297E-002	-1,368537892515387E-002	2,000000000000000E+000
7,5176768E-002	3,261256293112445E-003	3,000000000000000E+000
9,1205969E-002	4,989148484405057E-003	3,000000000000000E+000
1,0715048E-001	5,974074961436024E-003	3,000000000000000E+000
1,2315933E-001	6,795759216085689E-003	3,000000000000000E+000
1,3917939E-001	7,504158748618123E-003	3,000000000000000E+000
1,5511934E-001	8,121016619359447E-003	3,000000000000000E+000
1,7116763E-001	8,805389605976946E-003	3,000000000000000E+000
1,8718727E-001	9,342643436510759E-003	3,000000000000000E+000
2,0315959E-001	9,871406853483700E-003	3,000000000000000E+000
2,1917719E-001	1,039684879541039E-002	3,000000000000000E+000
2,3516361E-001	1,091184784293192E-002	3,000000000000000E+000
2,5120234E-001	1,153497613109802E-002	3,000000000000000E+000
2,6716012E-001	1,218660174012970E-002	3,000000000000000E+000
2,8314659E-001	1,295595503498874E-002	3,000000000000000E+000
2,9918244E-001	1,388025954024083E-002	3,000000000000000E+000
3,1510684E-001	1,475316453301773E-002	3,000000000000000E+000
3,3114249E-001	1,593443613571505E-002	3,000000000000000E+000
3,4716511E-001	1,708943280275649E-002	3,000000000000000E+000
3,6310524E-001	1,822810040594050E-002	3,000000000000000E+000
3,5010391E-001	-3,202496966917781E-003	3,000000000000000E+000
3,3405066E-001	-5,511615778153137E-003	3,000000000000000E+000
3,1806087E-001	-6,672461932201119E-003	3,000000000000000E+000
3,0206123E-001	-7,682764174619050E-003	3,000000000000000E+000
2,8610021E-001	-8,111506809159022E-003	3,000000000000000E+000
2,7011532E-001	-8,664847760635253E-003	3,000000000000000E+000
2,5408527E-001	-9,149696591355803E-003	3,000000000000000E+000
2,3806958E-001	-9,576644377375515E-003	3,000000000000000E+000
2,2208945E-001	-9,989211107908458E-003	3,000000000000000E+000
2,0608807E-001	-1,033463022659731E-002	3,000000000000000E+000
1,9006586E-001	-1,073398506874082E-002	3,000000000000000E+000
1,7410570E-001	-1,105428524913965E-002	3,000000000000000E+000
1,5807350E-001	-1,139987142563439E-002	3,000000000000000E+000
1,4207387E-001	-1,189860998949203E-002	3,000000000000000E+000
1,2610416E-001	-1,221618969314223E-002	3,000000000000000E+000
1,1010539E-001	-1,259516393904714E-002	3,000000000000000E+000
9,4141759E-002	-1,301388668748998E-002	3,000000000000000E+000
7,8127339E-002	-1,346034031451962E-002	3,000000000000000E+000
6,4104736E-002	2,168588394970757E-003	4,000000000000000E+000
8,0181673E-002	3,931089113077338E-003	4,000000000000000E+000
9,6178897E-002	5,211364883981995E-003	4,000000000000000E+000
1,1213502E-001	6,199197666200765E-003	4,000000000000000E+000
1,2816797E-001	7,034625771468683E-003	4,000000000000000E+000
1,4415854E-001	7,634764629825534E-003	4,000000000000000E+000
1,6015786E-001	8,221076977703065E-003	4,000000000000000E+000
1,7611979E-001	8,856890164600395E-003	4,000000000000000E+000
1,9217642E-001	9,356934203226586E-003	4,000000000000000E+000
2,0814249E-001	9,936021311580667E-003	4,000000000000000E+000
2,2412519E-001	1,049679834424117E-002	4,000000000000000E+000
2,4015398E-001	1,105974777063870E-002	4,000000000000000E+000
2,5617152E-001	1,163364474094757E-002	4,000000000000000E+000
2,7212727E-001	1,245498385216471E-002	4,000000000000000E+000
2,8816807E-001	1,316796394736314E-002	4,000000000000000E+000
3,0411717E-001	1,410444102863112E-002	4,000000000000000E+000
3,2013914E-001	1,508189339438104E-002	4,000000000000000E+000
3,3615443E-001	1,620974345876847E-002	4,000000000000000E+000
3,5212278E-001	1,738980767583022E-002	4,000000000000000E+000
3,6108547E-001	1,383325456389606E-003	4,000000000000000E+000
3,4507781E-001	-4,249941093170792E-003	4,000000000000000E+000
3,2905114E-001	-6,052371869531184E-003	4,000000000000000E+000
3,1305516E-001	-7,064384273452656E-003	4,000000000000000E+000
2,9707012E-001	-7,878879078651306E-003	4,000000000000000E+000
2,8104833E-001	-8,464790645947767E-003	4,000000000000000E+000
2,6508558E-001	-8,964029212372465E-003	4,000000000000000E+000
2,4911152E-001	-9,414968434446752E-003	4,000000000000000E+000
2,3311536E-001	-9,903246789607772E-003	4,000000000000000E+000
2,1710008E-001	-1,027171622296338E-002	4,000000000000000E+000
2,0107701E-001	-1,064292826992060E-002	4,000000000000000E+000
1,8508777E-001	-1,084146588883331E-002	4,000000000000000E+000
1,6909941E-001	-1,127874541072568E-002	4,000000000000000E+000
1,5309803E-001	-1,170612096079404E-002	4,000000000000000E+000
1,3709231E-001	-1,215665437154137E-002	4,000000000000000E+000
1,2111261E-001	-1,231370813448771E-002	4,000000000000000E+000
1,0508433E-001	-1,283486754966194E-002	4,000000000000000E+000
8,9148469E-002	-1,327340712867395E-002	4,000000000000000E+000
7,3086768E-002	-1,365010927987562E-002	4,000000000000000E+000
6,9171481E-002	2,199584221334983E-003	4,000000000000000E+000
8,5139647E-002	4,503726779385847E-003	4,000000000000000E+000
1,0117964E-001	5,519607658757392E-003	4,000000000000000E+000
1,1714782E-001	6,496368067493472E-003	4,000000000000000E+000
1,3317825E-001	7,215570021324558E-003	4,000000000000000E+000
1,4918254E-001	7,894731004062544E-003	4,000000000000000E+000
1,6507849E-001	8,493015421149538E-003	4,000000000000000E+000
1,8111473E-001	8,986568342231271E-003	4,000000000000000E+000
1,9711570E-001	9,565628448162111E-003	4,000000000000000E+000
2,1311624E-001	1,016545640912073E-002	4,000000000000000E+000
2,2916038E-001	1,066912636056458E-002	4,000000000000000E+000
2,4518503E-001	1,126927936797001E-002	4,000000000000000E+000
2,4945444E-001	1,159858889877796E-002	4,000000000000000E+000

File: 300.txt
EC-Lab ASCII FILE
Ewe/V	<I>/mA	cycle number
7,1109623E-002	-4,419674724340439E-002	1,000000000000000E+000
8,8078454E-002	3,610384243317340E-003	1,000000000000000E+000
1,1306899E-001	7,974932670549634E-003	1,000000000000000E+000
1,2905128E-001	9,663416781707679E-003	1,000000000000000E+000
1,5403992E-001	1,121380952026813E-002	1,000000000000000E+000
1,7007761E-001	1,195424904447774E-002	1,000000000000000E+000
1,8602040E-001	1,282637316520172E-002	1,000000000000000E+000
2,0201543E-001	1,356384294085727E-002	1,000000000000000E+000
2,1804991E-001	1,410133632392296E-002	1,000000000000000E+000
2,3403031E-001	1,506206276644664E-002	1,000000000000000E+000
2,5005651E-001	1,559418575088783E-002	1,000000000000000E+000
2,6606488E-001	1,652785242889276E-002	1,000000000000000E+000
2,8199944E-001	1,747416903490383E-002	1,000000000000000E+000
2,9801929E-001	1,872220125478635E-002	1,000000000000000E+000
3,1403086E-001	1,986229562511052E-002	1,000000000000000E+000
3,3001822E-001	2,132299526541223E-002	1,000000000000000E+000
3,4603298E-001	2,267964177347803E-002	1,000000000000000E+000
3,6200190E-001	2,449042114118738E-002	1,000000000000000E+000
3,5109118E-001	-5,450832926423288E-003	1,000000000000000E+000
3,3509296E-001	-8,771269820075173E-003	1,000000000000000E+000
3,1908080E-001	-1,009139324463225E-002	1,000000000000000E+000
3,0305073E-001	-1,153592070028633E-002	1,000000000000000E+000
2,8713974E-001	-1,199083887404410E-002	1,000000000000000E+000
2,7111357E-001	-1,280954558509009E-002	1,000000000000000E+000
2,5509876E-001	-1,326834789530645E-002	1,000000000000000E+000
2,3910058E-001	-1,373056558356126E-002	1,000000000000000E+000
2,2314057E-001	-1,419314411286901E-002	1,000000000000000E+000
2,0705134E-001	-1,460347456813904E-002	1,000000000000000E+000
1,9114098E-001	-1,525756173820504E-002	1,000000000000000E+000
1,7505686E-001	-1,554463360565328E-002	1,000000000000000E+000
1,5907522E-001	-1,587538176718223E-002	1,000000000000000E+000
1,4311776E-001	-1,664158488141157E-002	1,000000000000000E+000
1,2710808E-001	-1,690202345877573E-002	1,000000000000000E+000
1,1108759E-001	-1,731205570928676E-002	1,000000000000000E+000
9,5159404E-002	-1,797896300752960E-002	1,000000000000000E+000
7,9107113E-002	-1,848797551174358E-002	1,000000000000000E+000
6,3662671E-002	-1,843731477856636E-002	1,000000000000000E+000
7,7237733E-002	6,004856904413225E-003	2,000000000000000E+000
9,3274131E-002	7,914276041265128E-003	2,000000000000000E+000
1,0923032E-001	9,231110037702217E-003	2,000000000000000E+000
1,2525716E-001	1,020210736848337E-002	2,000000000000000E+000
1,4125027E-001	1,102353137115034E-002	2,000000000000000E+000
1,5721154E-001	1,191078735622186E-002	2,000000000000000E+000
1,7322503E-001	1,253465418243044E-002	2,000000000000000E+000
1,8924551E-001	1,311363626142942E-002	2,000000000000000E+000
2,0523034E-001	1,372784776892033E-002	2,000000000000000E+000
2,2126800E-001	1,452552416800852E-002	2,000000000000000E+000
2,3727575E-001	1,520060037679888E-002	2,000000000000000E+000
2,5324151E-001	1,610788868504949E-002	2,000000000000000E+000
2,6921296E-001	1,691855290070336E-002	2,000000000000000E+000
2,8528503E-001	1,767847538552209E-002	2,000000000000000E+000
3,0122465E-001	1,888172832756635E-002	2,000000000000000E+000
3,1724700E-001	2,019140892031525E-002	2,000000000000000E+000
3,3319747E-001	2,139426033730461E-002	2,000000000000000E+000
3,4921604E-001	2,304332692947356E-002	2,000000000000000E+000
3,6377463E-001	2,376651577651501E-002	2,000000000000000E+000
3,4806973E-001	-6,297001790941670E-003	2,000000000000000E+000
3,3206198E-001	-8,723265505553435E-003	2,000000000000000E+000
3,1606379E-001	-1,047513230114414E-002	2,000000000000000E+000
3,0007002E-001	-1,139765844454810E-002	2,000000000000000E+000
2,8410557E-001	-1,205350717379279E-002	2,000000000000000E+000
2,6809528E-001	-1,259403531706382E-002	2,000000000000000E+000
2,5212064E-001	-1,316584424639583E-002	2,000000000000000E+000
2,3615237E-001	-1,382907847413051E-002	2,000000000000000E+000
2,2014521E-001	-1,409121415138843E-002	2,000000000000000E+000
2,0409484E-001	-1,458424704384619E-002	2,000000000000000E+000
1,8814246E-001	-1,501741205417301E-002	2,000000000000000E+000
1,7209017E-001	-1,539028484888455E-002	2,000000000000000E+000
1,5610532E-001	-1,594711231773543E-002	2,000000000000000E+000
1,4015168E-001	-1,645750424771303E-002	2,000000000000000E+000
1,2409747E-001	-1,677439377696524E-002	2,000000000000000E+000
1,0813237E-001	-1,723676045864220E-002	2,000000000000000E+000
9,2183821E-002	-1,794161089492254E-002	2,000000000000000E+000
7,6151237E-002	-1,818895544856786E-002	2,000000000000000E+000
6,3975170E-002	5,330607996658410E-003	3,000000000000000E+000
8,0290981E-002	6,852978493528422E-003	3,000000000000000E+000
9,6300006E-002	8,353659144510556E-003	3,000000000000000E+000
1,1222947E-001	9,579280142982816E-003	3,000000000000000E+000
1,2822448E-001	1,058268356961589E-002	3,000000000000000E+000
1,4428760E-001	1,139893009531077E-002	3,000000000000000E+000
1,6021197E-001	1,208069128830783E-002	3,000000000000000E+000
1,7623053E-001	1,290752673800549E-002	3,000000000000000E+000
1,9223702E-001	1,329947893561137E-002	3,000000000000000E+000
2,0821548E-001	1,411988441371553E-002	3,000000000000000E+000
2,2422130E-001	1,475408632480446E-002	3,000000000000000E+000
2,4025837E-001	1,535685901969071E-002	3,000000000000000E+000
2,5628135E-001	1,612775204339416E-002	3,000000000000000E+000
2,7222550E-001	1,704512139804135E-002	3,000000000000000E+000
2,8827527E-001	1,825904976576564E-002	3,000000000000000E+000
3,0419260E-001	1,911640294880873E-002	3,000000000000000E+000
3,2023469E-001	2,052871359192068E-002	3,000000000000000E+000
3,3623037E-001	2,195040724958139E-002	3,000000000000000E+000
3,5225528E-001	2,359380648995280E-002	3,000000000000000E+000
3,6116424E-001	-2,859524592364923E-003	3,000000000000000E+000
3,4512153E-001	-7,008749581230697E-003	3,000000000000000E+000
3,2904631E-001	-8,994866045638150E-003	3,000000000000000E+000
3,1310603E-001	-1,062691297617372E-002	3,000000000000000E+000
2,9708871E-001	-1,138089268800593E-002	3,000000000000000E+000
2,8106695E-001	-1,192628075635488E-002	3,000000000000000E+000
2,6513308E-001	-1,271298531549595E-002	3,000000000000000E+000
2,4906929E-001	-1,340132459226878E-002	3,000000000000000E+000
2,3314491E-001	-1,370817574255245E-002	3,000000000000000E+000
2,1710216E-001	-1,416487628957830E-002	3,000000000000000E+000
2,0108745E-001	-1,451769449158744E-002	3,000000000000000E+000
1,8510064E-001	-1,515474119126642E-002	3,000000000000000E+000
1,6909738E-001	-1,543330275720411E-002	3,000000000000000E+000
1,5309854E-001	-1,607361663518531E-002	3,000000000000000E+000
1,3714363E-001	-1,632851565749056E-002	3,000000000000000E+000
1,2108370E-001	-1,687757666125736E-002	3,000000000000000E+000
1,0508167E-001	-1,737332514518734E-002	3,000000000000000E+000
8,9150928E-002	-1,767938936706435E-002	3,000000000000000E+000
7,3123462E-002	-1,836917205146166E-002	3,000000000000000E+000
6,7236550E-002	1,100144713864638E-003	4,000000000000000E+000
8,3264038E-002	7,505792900277197E-003	4,000000000000000E+000
9,9250138E-002	8,751765824429950E-003	4,000000000000000E+000
1,1527125E-001	1,005673589570507E-002	4,000000000000000E+000
1,3123889E-001	1,104670607710437E-002	4,000000000000000E+000
1,4725620E-001	1,159404644786266E-002	4,000000000000000E+000
1,6319965E-001	1,234284778693107E-002	4,000000000000000E+000
1,7923285E-001	1,329765339736089E-002	4,000000000000000E+000
1,9525337E-001	1,377846310921697E-002	4,000000000000000E+000
2,1121463E-001	1,439560239171747E-002	4,000000000000000E+000
2,2721411E-001	1,484113967453601E-002	4,000000000000000E+000
2,4329825E-001	1,582071014648445E-002	4,000000000000000E+000
2,5919330E-001	1,646312676627228E-002	4,000000000000000E+000
2,7528507E-001	1,764154817695579E-002	4,000000000000000E+000
2,9129982E-001	1,832473097905075E-002	4,000000000000000E+000
3,0720958E-001	1,960353503624601E-002	4,000000000000000E+000
3,2323578E-001	2,106992172484756E-002	4,000000000000000E+000
3,3921933E-001	2,231370952067668E-002	4,000000000000000E+000
3,5518190E-001	2,385121048525132E-002	4,000000000000000E+000
3,5808870E-001	-1,850623907360696E-003	4,000000000000000E+000
3,4205937E-001	-7,482194238521797E-003	4,000000000000000E+000
3,2602486E-001	-9,715485211199804E-003	4,000000000000000E+000
3,1010175E-001	-1,061042346445901E-002	4,000000000000000E+000
2,9409593E-001	-1,163592005383786E-002	4,000000000000000E+000
2,7812067E-001	-1,215463123080553E-002	4,000000000000000E+000
2,6209319E-001	-1,303594392156814E-002	4,000000000000000E+000
2,4604660E-001	-1,329462079908506E-002	4,000000000000000E+000
2,3012543E-001	-1,369225855766371E-002	4,000000000000000E+000
2,1406101E-001	-1,418686245342540E-002	4,000000000000000E+000
1,9808701E-001	-1,485811917967414E-002	4,000000000000000E+000
1,8208371E-001	-1,500635610015395E-002	4,000000000000000E+000
1,6608551E-001	-1,552005877225991E-002	4,000000000000000E+000
1,5008031E-001	-1,594265547998168E-002	4,000000000000000E+000
1,3415849E-001	-1,658195026902831E-002	4,000000000000000E+000
1,1811001E-001	-1,694775602469836E-002	4,000000000000000E+000
1,0206979E-001	-1,758287260029950E-002	4,000000000000000E+000
8,6080506E-002	-1,793530728367229E-002	4,000000000000000E+000
7,0101403E-002	-1,868275164658070E-002	4,000000000000000E+000
7,0260517E-002	5,391260856958985E-003	4,000000000000000E+000
8,6245358E-002	7,581725699249843E-003	4,000000000000000E+000
1,0231610E-001	9,160163622436795E-003	4,000000000000000E+000
1,1823476E-001	1,009841566434869E-002	4,000000000000000E+000
1,3425206E-001	1,115871713336675E-002	4,000000000000000E+000
1,5024389E-001	1,171153160091007E-002	4,000000000000000E+000
1,6617016E-001	1,262987808913749E-002	4,000000000000000E+000
1,8224539E-001	1,327952972217950E-002	4,000000000000000E+000
1,9827224E-001	1,390757758041825E-002	4,000000000000000E+000
2,1425961E-001	1,441425635918377E-002	4,000000000000000E+000
2,3023301E-001	1,528514970329226E-002	4,000000000000000E+000
2,4629103E-001	1,607756173774161E-002	4,000000000000000E+000
2,4928258E-001	1,624496281147003E-002	4,000000000000000E+000