Folder: nife-mo-alkaline-oer-data/fig_si_ecsa/ZrO2

Note: README.md
# Raw Data and Plot Scripts for the Manuscript

This repository contains the raw data and plotting scripts for the figures in the following manuscript:

**Varghese, N. K., Mkrtchian, E., Singh, A., Savio, L., Boccia, M., Marzocchi, V., & Comite, A., NiFe on CeO2, TiO2 and ZrO2 Supports as Efficient Oxygen Evolution Reaction Catalysts in Alkaline Media. ACS Appl. Energy Mater. 2025; doi:10.1021/acsaem.4c03268**

Each folder corresponds to a specific figure in the paper, with the folder name matching the figure number/details. Inside each folder, you will find the raw data files and the Python scripts used to generate the plots for that figure.

The **XPS plots** were generated using a commercial software. The folder `fig_3_and_si_xps` contains only the raw XPS data.

If you use this data, please cite the above article.

## License

This project is licensed under the **GNU General Public License (GPL)**, which allows you to freely use, modify and distribute the code, provided that any derivative works are also licensed under GPL.

File: 10.txt
C:\EC-lab data\Neethu\2024_10_01_Ni90Fe10_ZrO2\CV_ECSA\CV_ECSA_01_CV_C01.mpr
Ewe/V	<I>/mA
6,259723752737045E-002	-2,480905316770077E-002
7,493346184492111E-002	1,093747887016099E-004
8,694192767143250E-002	4,840031554018435E-004
9,895887970924377E-002	7,204676624168217E-004
1,109514310956001E-001	8,910656659584966E-004
1,229439750313759E-001	1,043257806954943E-003
1,349492520093918E-001	1,165526804007404E-003
1,469375640153885E-001	1,278320992683900E-003
1,589502692222595E-001	1,393372927141076E-003
1,709311455488205E-001	1,470145508267033E-003
1,829417496919632E-001	1,563928120596626E-003
1,949523091316223E-001	1,648796195796519E-003
2,069268375635147E-001	1,730605987311857E-003
2,189247012138367E-001	1,815807027284150E-003
2,309617996215820E-001	1,911415654090157E-003
2,429543286561966E-001	2,023074950961420E-003
2,549458146095276E-001	2,110580987560007E-003
2,669267058372498E-001	2,203220044369424E-003
2,789043784141541E-001	2,305652191151034E-003
2,909553050994873E-001	2,422020093136881E-003
3,032936751842499E-001	2,587074624359420E-003
3,152416944503784E-001	2,715292287272568E-003
3,272840976715088E-001	2,847654085026421E-003
3,392554521560669E-001	2,994383327690947E-003
3,512787222862244E-001	3,133905416621861E-003
3,630241453647614E-001	3,274156451273788E-003
3,526716232299805E-001	1,638389726900238E-003
3,406748175621033E-001	1,217483294129596E-003
3,286928534507751E-001	9,008608455284683E-004
3,166324198246002E-001	6,609669502116340E-004
3,047257959842682E-001	4,492079433475772E-004
2,926738262176514E-001	2,748745704755718E-004
2,806707024574280E-001	1,132137822055395E-004
2,686887383460999E-001	-1,148413923720198E-005
2,566993534564972E-001	-1,356171858717475E-004
2,447015196084976E-001	-2,370547830381582E-004
2,326718270778656E-001	-3,423524683005118E-004
2,206909358501434E-001	-4,257371283734480E-004
2,087090015411377E-001	-5,173102839998397E-004
1,967005282640457E-001	-5,997255213717151E-004
1,846878230571747E-001	-6,719591315737073E-004
1,726825684309006E-001	-7,517221852645509E-004
1,606730371713638E-001	-8,216063410886650E-004
1,486773043870926E-001	-8,883426911510204E-004
1,367038190364838E-001	-9,582470115750280E-004
1,246890276670456E-001	-1,022253085264107E-003
1,127134487032890E-001	-1,085036062620389E-003
1,007060408592224E-001	-1,141163325950469E-003
8,871137350797653E-002	-1,206493794597918E-003
7,670184969902039E-002	-1,263737568984247E-003
6,470612436532974E-002	-1,329910447600046E-003
7,279592007398605E-002	-1,262034061716228E-004
8,480968326330185E-002	1,798294097175845E-004
9,678208082914352E-002	3,908189687325397E-004
1,088340356945992E-001	5,718897314687206E-004
1,207756623625755E-001	7,320975604401363E-004
1,328064054250717E-001	8,557930700421656E-004
1,448042541742325E-001	9,795588312381774E-004
1,567692458629608E-001	1,082390630876440E-003
1,687692105770111E-001	1,183910961656317E-003
1,807808429002762E-001	1,274281496551812E-003
1,927935630083084E-001	1,368577186103382E-003
2,047723233699799E-001	1,453417126564702E-003
2,167988121509552E-001	1,546179915210270E-003
2,287924289703369E-001	1,627844643263862E-003
2,407966256141663E-001	1,727903993149222E-003
2,527881264686584E-001	1,811611998332581E-003
2,647912800312042E-001	1,910292289081827E-003
2,768262624740601E-001	2,000859286690013E-003
2,887944281101227E-001	2,105765498493341E-003
3,008018434047699E-001	2,217202160089207E-003
3,127148151397705E-001	2,347119156588129E-003
3,247752785682678E-001	2,468214994156295E-003
3,367911577224731E-001	2,603927649572679E-003
3,487995862960815E-001	2,731102382380460E-003
3,607468008995056E-001	2,887399483047025E-003
3,547051846981049E-001	1,403598282734123E-003
3,426914215087891E-001	9,789001293635620E-004
3,306829631328583E-001	6,798749723034079E-004
3,186362981796265E-001	4,391751871042782E-004
3,067105710506439E-001	2,460453561794313E-004
2,946639358997345E-001	7,417333895887179E-005
2,827031910419464E-001	-6,715654429179151E-005
2,706586718559265E-001	-1,981929595175117E-004
2,586852312088013E-001	-3,106307100814042E-004
2,467329800128937E-001	-4,124516364725070E-004
2,346746623516083E-001	-5,060118726894994E-004
2,226991057395935E-001	-5,997010643517967E-004
2,107097059488297E-001	-6,721635556998643E-004
1,986630707979202E-001	-7,472718370317363E-004
1,867029964923859E-001	-8,219813393741753E-004
1,746620386838913E-001	-8,956100650215765E-004
1,626907289028168E-001	-9,554145831821743E-004
1,507066488265991E-001	-1,027607231932322E-003
1,387024372816086E-001	-1,087518609387592E-003
1,266642659902573E-001	-1,156253940145551E-003
1,147162690758705E-001	-1,210862565332923E-003
1,027216017246246E-001	-1,269020145695389E-003
9,074284881353378E-002	-1,325278070133340E-003
7,869724929332733E-002	-1,392477919176191E-003
6,670681387186050E-002	-1,446744706400847E-003
7,078249007463455E-002	-3,420286844394234E-004
8,283338695764542E-002	9,541084462543603E-006
9,482380747795105E-002	2,358829139363179E-004
1,068004518747330E-001	4,150083521515767E-004
1,187972426414490E-001	5,785925386926800E-004
1,308226585388184E-001	7,047172257443873E-004
1,428290158510208E-001	8,322675944833040E-004
1,547738313674927E-001	9,385877297231858E-004
1,667727530002594E-001	1,046490362366762E-003
1,788077205419540E-001	1,138361757949937E-003
1,908151209354401E-001	1,235144828603586E-003
2,027811706066132E-001	1,319179855339893E-003
2,148108333349228E-001	1,413826390893925E-003
2,268065661191940E-001	1,499940332804626E-003
2,388044148683548E-001	1,582259143847128E-003
2,508043944835663E-001	1,672479585168829E-003
2,627884745597839E-001	1,760879767297649E-003
2,747905552387238E-001	1,859191647748022E-003
2,867958247661591E-001	1,967340188760630E-003
2,988181114196777E-001	2,063981527936881E-003
3,107942342758179E-001	2,185196856974418E-003
3,227501511573792E-001	2,304779600914730E-003
3,348031938076019E-001	2,434208254810610E-003
3,467915058135986E-001	2,560504021217905E-003
3,587871789932251E-001	2,695571423154675E-003
3,566825687885284E-001	1,349943802509827E-003
3,446878790855408E-001	8,883145872257726E-004
3,326656222343445E-001	5,941803054291214E-004
3,206985592842102E-001	3,573622908350908E-004
3,086677789688110E-001	1,582696601217671E-004
2,967091798782349E-001	-1,236986606304412E-005
2,846752703189850E-001	-1,519380341482952E-004
2,726668119430542E-001	-2,750989751621404E-004
2,607304751873016E-001	-3,813841399430218E-004
2,486923187971115E-001	-4,932908524534919E-004
2,367411404848099E-001	-5,836674249790286E-004
2,246966063976288E-001	-6,686431760398459E-004
2,126913368701935E-001	-7,542906439118313E-004
2,007104456424713E-001	-8,366622096218634E-004
1,886945366859436E-001	-9,044472981595744E-004
1,766977608203888E-001	-9,789093970472042E-004
1,646839976310730E-001	-1,043892680442055E-003
1,527147889137268E-001	-1,106837149159722E-003
1,407063156366348E-001	-1,157972413137844E-003
1,286925375461578E-001	-1,224407453129835E-003
1,167074292898178E-001	-1,282221250154113E-003
1,047010943293571E-001	-1,345748657142935E-003
9,272233396768570E-002	-1,392319962448065E-003
8,070219308137894E-002	-1,459688223500656E-003
6,870540231466293E-002	-1,511555808166223E-003
6,883800029754639E-002	-5,006368234414067E-004
8,084222674369812E-002	-1,147061783510349E-004
9,279977530241013E-002	1,262615522782185E-004
1,048039793968201E-001	3,184953006004445E-004
1,167774423956871E-001	4,702868072012350E-004
1,287975907325745E-001	6,175470850764576E-004
1,408134549856186E-001	7,313127775382270E-004
1,528102457523346E-001	8,488281956589259E-004
1,648218929767609E-001	9,472884936527655E-004
1,767889857292175E-001	1,047534487615510E-003
1,887634992599487E-001	1,135577953256736E-003
2,007931768894196E-001	1,225471730760073E-003
2,127645164728165E-001	1,308288678652998E-003
2,248175293207169E-001	1,393447848116652E-003
2,368217557668686E-001	1,483103371558374E-003
2,488153725862503E-001	1,581095473806339E-003
2,608037889003754E-001	1,662424372298386E-003
2,727643847465515E-001	1,764401347760146E-003
2,847526967525482E-001	1,857935414591338E-003
2,968205809593201E-001	1,966582651625182E-003
3,087664544582367E-001	2,070203267201719E-003
3,207568824291229E-001	2,191502358915323E-003
3,327430784702301E-001	2,305746988794351E-003
3,447780609130859E-001	2,433703704607763E-003
3,568162024021149E-001	2,559096366220967E-003
3,586514592170715E-001	1,358673561938943E-003
3,466843366622925E-001	8,581265807421287E-004
3,346652686595917E-001	5,424230941436575E-004
3,226408660411835E-001	3,038499904943360E-004
3,107231259346008E-001	9,700877744422249E-005
2,987056672573090E-001	-5,734027743570865E-005
2,866993248462677E-001	-2,082535733248340E-004
2,746897935867310E-001	-3,216809467653427E-004
2,626791894435883E-001	-4,344445361412997E-004
2,507290840148926E-001	-5,408964847514706E-004
2,386972755193710E-001	-6,400000976201305E-004
2,267110943794250E-001	-7,247445478747588E-004
2,146877795457840E-001	-8,057333477524860E-004
2,027036994695663E-001	-8,803662256266567E-004
1,906687468290329E-001	-9,510177938123147E-004
1,786793470382690E-001	-1,014435236424173E-003
1,667037904262543E-001	-1,085270118319725E-003
1,547123044729233E-001	-1,145528534026300E-003
1,427155137062073E-001	-1,216411262753863E-003
1,307155191898346E-001	-1,266095690004512E-003
1,187304183840752E-001	-1,328297434493258E-003
1,066752746701241E-001	-1,389835206619287E-003
9,474211931228638E-002	-1,454622391099327E-003
8,272942155599594E-002	-1,500850488136397E-003
7,067958265542984E-002	-1,557057035420758E-003
6,678425520658493E-002	-6,549947024554834E-004
7,881394028663635E-002	-2,212695174207283E-004
9,082771092653275E-002	3,670333082136836E-005
1,028202474117279E-001	2,318116516511919E-004
1,148043125867844E-001	3,875002304143740E-004
1,267947554588318E-001	5,330320392810464E-004
1,388413906097412E-001	6,569448936783445E-004
1,507766693830490E-001	7,718127287295855E-004
1,627734601497650E-001	8,664440536247410E-004
1,706734299659729E-001	8,309573839561874E-004

File: 20.txt
C:\EC-lab data\Neethu\2024_10_01_Ni90Fe10_ZrO2\CV_ECSA\CV_ECSA_02_CV_C01.mpr
Ewe/V	<I>/mA
6,420119106769562E-002	-3,700117021799088E-002
7,645680010318756E-002	-2,687625111051328E-003
8,843131363391876E-002	-1,992060782632268E-003
1,004228070378304E-001	-1,556458608724321E-003
1,123814135789871E-001	-1,313768637879142E-003
1,244100332260132E-001	-1,029509801204158E-003
1,363739371299744E-001	-9,722188910717237E-004
1,483802646398544E-001	-8,336265042422145E-004
1,604088991880417E-001	-6,619954475581826E-004
1,723876446485519E-001	-5,304800529470554E-004
1,844099164009094E-001	-3,678683610309616E-004
1,964364051818848E-001	-3,836022039683511E-004
2,084586322307587E-001	-2,151603202609886E-004
2,203886359930038E-001	-8,483573207300845E-005
2,323843389749527E-001	6,847652487404422E-005
2,444129735231400E-001	2,944598374799366E-004
2,563821673393250E-001	3,700106567015998E-004
2,683354914188385E-001	5,236589150212235E-004
2,804203331470490E-001	6,901112156238350E-004
2,923874258995056E-001	9,374699108324995E-004
3,043842017650604E-001	1,093485033273373E-003
3,163428008556366E-001	1,355914430070652E-003
3,283459842205048E-001	1,570098830976953E-003
3,403883874416351E-001	1,786933067773201E-003
3,523809313774109E-001	2,036537767573334E-003
3,630910813808441E-001	1,850665834111472E-003
3,517306447029114E-001	2,757188633781711E-003
3,397911190986633E-001	2,266223254730863E-003
3,277190327644348E-001	1,957656304781532E-003
3,157636225223541E-001	1,795475019797001E-003
3,037816882133484E-001	1,611331662742382E-003
2,917785048484802E-001	1,530216000598252E-003
2,797679007053375E-001	1,326848956186615E-003
2,677562832832336E-001	1,220290218413913E-003
2,558146417140961E-001	1,106029631585076E-003
2,437881529331207E-001	1,047500750920096E-003
2,317892163991928E-001	9,426427681302370E-004
2,198147326707840E-001	8,321285655694256E-004
2,078189849853516E-001	7,535477256268470E-004
1,957712769508362E-001	6,659209053191686E-004
1,838020533323288E-001	5,485624456519486E-004
1,718392074108124E-001	3,802591917418698E-004
1,597946882247925E-001	2,510870959600586E-004
1,478116810321808E-001	1,974687873758669E-004
1,358074545860291E-001	4,331356260915188E-005
1,237576305866241E-001	-6,877765059066935E-005
1,117906942963600E-001	-1,675598759147958E-004
9,980858862400055E-002	-2,670307678642892E-004
8,779270946979523E-002	-3,764869069384624E-004
7,584153115749359E-002	-5,132547634932230E-004
6,375668942928314E-002	-6,142309121059970E-004
7,281076908111572E-002	-2,407015235500388E-003
8,481923490762711E-002	-1,980556429569125E-003
9,683723747730255E-002	-1,756173571047165E-003
1,087990403175354E-001	-1,492432513175497E-003
1,208021864295006E-001	-1,278315910355932E-003
1,328021585941315E-001	-1,163409767859438E-003
1,448084861040115E-001	-1,022872063576535E-003
1,567671149969101E-001	-9,367484267554793E-004
1,687734574079514E-001	-7,328655496571159E-004
1,807681173086166E-001	-6,459520861796953E-004
1,927840262651443E-001	-5,899108879627111E-004
2,047712355852127E-001	-3,838203099938379E-004
2,167669832706451E-001	-2,824993287638924E-004
2,287956029176712E-001	-8,143135524581635E-005
2,408114969730377E-001	-8,716056712459086E-006
2,527626752853394E-001	2,063113445526848E-004
2,647700905799866E-001	3,395391996255724E-004
2,767615616321564E-001	5,581950044154828E-004
2,887499034404755E-001	7,054824662999504E-004
3,008050024509430E-001	9,154961408057748E-004
3,127901256084442E-001	1,164867976950954E-003
3,248208463191986E-001	1,355994007149594E-003
3,368038833141327E-001	1,581426098507817E-003
3,488250374794006E-001	1,786063495240311E-003
3,607899248600006E-001	2,096871075080407E-003
3,547285199165344E-001	2,803850656669549E-003
3,427709639072418E-001	2,348234836711486E-003
3,307254314422607E-001	1,922669265796794E-003
3,187508881092072E-001	1,788082680554401E-003
3,067678809165955E-001	1,560445793778075E-003
2,948155999183655E-001	1,442456555634165E-003
2,828166782855988E-001	1,289064683010953E-003
2,707817256450653E-001	1,317372659522570E-003
2,588379979133606E-001	1,146195495999161E-003
2,467934340238571E-001	1,032539203583415E-003
2,348327189683914E-001	9,227912718146117E-004
2,227765172719955E-001	8,013034069807440E-004
2,107670009136200E-001	6,442271553708089E-004
1,988158226013184E-001	6,148256536478089E-004
1,868031173944473E-001	4,712756103631196E-004
1,747967749834061E-001	4,393775745349425E-004
1,627670973539352E-001	2,544531620919273E-004
1,507809013128281E-001	1,997973221745247E-004
1,387586444616318E-001	9,653395242518515E-005
1,267989873886108E-001	-8,892395789172522E-005
1,148117482662201E-001	-1,285916698550325E-004
1,027969270944595E-001	-3,216276813789059E-004
9,078739583492279E-002	-4,082759251020810E-004
7,883303612470627E-002	-5,544699266061357E-004
6,677789241075516E-002	-7,215323849541857E-004
6,985957175493240E-002	-2,512020603651972E-003
8,182135224342346E-002	-2,159836494818724E-003
9,380754083395004E-002	-1,912371523101478E-003
1,057926714420319E-001	-1,625347987636919E-003
1,177693009376526E-001	-1,419339929607645E-003
1,297936737537384E-001	-1,363269285556507E-003
1,418021470308304E-001	-1,188348769910931E-003
1,537671089172363E-001	-9,602991254487950E-004
1,657925397157669E-001	-8,453989356624948E-004
1,778010129928589E-001	-7,696830615107810E-004
1,897787004709244E-001	-5,837770847089492E-004
2,017754912376404E-001	-5,015088405613162E-004
2,138221710920334E-001	-4,473953588078261E-004
2,257924079895020E-001	-1,799492606551209E-004
2,377754300832748E-001	-7,966579789861375E-005
2,498284578323364E-001	8,388910644001678E-005
2,618347704410553E-001	2,600033208013715E-004
2,737912833690643E-001	4,290111273129930E-004
2,858294248580933E-001	5,725965100248660E-004
2,977827191352844E-001	7,935897236637651E-004
3,097487688064575E-001	9,525671227695286E-004
3,217497766017914E-001	1,239791077516639E-003
3,338017463684082E-001	1,487910171624237E-003
3,458070456981659E-001	1,668778886604980E-003
3,577751815319061E-001	1,917561213741908E-003
3,577804863452911E-001	2,850910788386798E-003
3,457147777080536E-001	2,329924779751816E-003
3,337848186492920E-001	2,010287083572211E-003
3,217583000659943E-001	1,692226352975862E-003
3,097678720951080E-001	1,521727086112729E-003
2,977540791034698E-001	1,407675859472539E-003
2,857912480831146E-001	1,328546692228106E-003
2,737870514392853E-001	1,218277023562459E-003
2,618443071842194E-001	1,161363414953315E-003
2,498252540826797E-001	9,942391408441376E-004
2,378316372632980E-001	9,025034962548893E-004
2,257765233516693E-001	7,490586049622534E-004
2,137935012578964E-001	6,759307066709509E-004
2,018041461706162E-001	6,182211986756371E-004
1,897744685411453E-001	5,413263427019215E-004
1,777575314044952E-001	3,738689525494832E-004
1,657925397157669E-001	3,023739500139090E-004
1,537915170192719E-001	2,216296028378834E-004
1,418233662843704E-001	8,959255846666212E-005
1,297968477010727E-001	-2,195925214281205E-005
1,177512779831886E-001	-1,986041113152875E-004
1,058382838964462E-001	-2,401965341589487E-004
9,375555813312531E-002	-4,309158080652064E-004
8,183409273624420E-002	-4,865620230913442E-004
6,982774287462235E-002	-6,320162093389732E-004
6,681714206933975E-002	-2,736553815642164E-003
7,886167615652084E-002	-2,164298885165616E-003
9,084785729646683E-002	-1,907785176593244E-003
1,028255596756935E-001	-1,684115593350176E-003
1,148064434528351E-001	-1,535466292740174E-003
1,267830729484558E-001	-1,351936101720505E-003
1,387713849544525E-001	-1,110416342498864E-003
1,507883369922638E-001	-1,115306269369928E-003
1,627967953681946E-001	-8,947138739872421E-004
1,747882813215256E-001	-8,197555083481918E-004
1,867787092924118E-001	-5,747075670283416E-004
1,988020241260529E-001	-4,830986625974140E-004
2,108083814382553E-001	-3,634941995861235E-004
2,227998524904251E-001	-2,920876108081808E-004
2,348274290561676E-001	-1,484756407295318E-004
2,468072474002838E-001	-7,299850491798921E-005
2,588167488574982E-001	1,906334882227799E-004
2,707743048667908E-001	3,393181301126562E-004
2,827859520912170E-001	5,877438184143098E-004
2,947816848754883E-001	8,317011441384345E-004
3,067848682403564E-001	9,764891833541432E-004
3,187763392925262E-001	1,120973600618694E-003
3,308039009571075E-001	1,393277218021974E-003
3,428166210651398E-001	1,616967270837014E-003
3,548197448253632E-001	1,831623341584213E-003
3,607774674892426E-001	3,147216457754010E-003
3,487762808799744E-001	2,381901529243228E-003
3,367890417575836E-001	1,937448116526259E-003
3,247953951358795E-001	1,804243826461098E-003
3,127763569355011E-001	1,609465924250094E-003
3,007689416408539E-001	1,488243366650380E-003
2,887817025184631E-001	1,322766636467015E-003
2,767997384071350E-001	1,165537057979101E-003
2,647923529148102E-001	1,049051084313156E-003
2,527849376201630E-001	9,954475469082097E-004
2,407732903957367E-001	8,136181205810745E-004
2,287648469209671E-001	7,513370361872770E-004
2,167988121509552E-001	6,998940338723534E-004
2,047913968563080E-001	5,876141944167186E-004
1,927872151136398E-001	4,784115499205654E-004
1,807416081428528E-001	4,467316158061931E-004
1,688158810138702E-001	3,637619126864058E-004
1,567830145359039E-001	1,341560884476950E-004
1,448381990194321E-001	6,300590786378508E-005
1,328106373548508E-001	7,389701415958265E-005
1,208170428872108E-001	-8,385717813389458E-005
1,088722348213196E-001	-2,161831078713778E-004
9,679692983627319E-002	-4,090098399232118E-004
8,479271084070206E-002	-5,033540158163119E-004
7,280864566564560E-002	-5,793440432676636E-004
6,380124390125275E-002	-3,166703119657339E-003
7,580333203077316E-002	-2,310882125491975E-003
8,780013769865036E-002	-2,008189614604854E-003
9,977782517671585E-002	-1,829313372983555E-003
1,117629036307335E-001	-1,459393117458789E-003
1,237767264246941E-001	-1,404587577174723E-003
1,357734948396683E-001	-1,213446823520049E-003
1,478244066238403E-001	-1,109649969967666E-003
1,597745418548584E-001	-9,436810289739864E-004
1,705015748739243E-001	2,378417819272720E-003