Folder: nife-mo-alkaline-oer-data/fig_si_ecsa/ZrO2 (part 4)

File: 500.txt
C:\EC-lab data\Neethu\2024_10_01_Ni90Fe10_ZrO2\CV_ECSA\CV_ECSA_07_CV_C01.mpr
Ewe/V	<I>/mA
7,863681018352509E-002	-2,062489464879036E-002
8,870289474725723E-002	1,021723795889154E-002
9,961552917957306E-002	1,204453554196841E-002
1,106151565909386E-001	1,376031001644959E-002
1,216550990939140E-001	1,503554809217651E-002
1,476557403802872E-001	1,652772920028330E-002
1,586277633905411E-001	1,719208682435336E-002
1,696221083402634E-001	1,788722151084379E-002
1,806164234876633E-001	1,829934759330670E-002
1,916086226701736E-001	1,895839765711574E-002
2,176400572061539E-001	1,990818351906565E-002
2,286248207092285E-001	2,069103419853491E-002
2,396329194307327E-001	2,157532483397512E-002
2,506601512432098E-001	2,140130433771348E-002
2,616343200206757E-001	2,231622515925363E-002
2,726116478443146E-001	2,312606285502428E-002
2,836452424526215E-001	2,361286425770640E-002
2,946299910545349E-001	2,427800084640491E-002
3,056168854236603E-001	2,539223406064489E-002
3,166112005710602E-001	2,650087799136391E-002
3,275842964649200E-001	2,705488373451068E-002
3,386104702949524E-001	2,848334609249533E-002
3,496079742908478E-001	2,964118887595978E-002
3,605863451957703E-001	3,085304418386340E-002
3,576362133026123E-001	-9,545897854034528E-004
3,465973734855652E-001	-1,013263390895090E-002
3,356231749057770E-001	-1,288164329404627E-002
3,245663046836853E-001	-1,460024782944758E-002
2,986186742782593E-001	-1,607245227528943E-002
2,876519262790680E-001	-1,663138923302333E-002
2,766205072402954E-001	-1,711285299481660E-002
2,656463086605072E-001	-1,767461936692089E-002
2,546010911464691E-001	-1,798875578303216E-002
2,286513298749924E-001	-1,872229448437995E-002
2,176347374916077E-001	-1,933264259989509E-002
2,065926939249039E-001	-1,979065269188138E-002
1,955845803022385E-001	-1,976720198945262E-002
1,846560090780258E-001	-2,049211468976059E-002
1,736086606979370E-001	-2,074805432251497E-002
1,626175343990326E-001	-2,116896102840349E-002
1,516401767730713E-001	-2,165317837918546E-002
1,406384259462357E-001	-2,195563092755043E-002
1,296324431896210E-001	-2,239376106566243E-002
1,186370626091957E-001	-2,245293332412582E-002
1,076735034584999E-001	-2,343866884338142E-002
9,663250297307968E-002	-2,330373072375849E-002
8,564773201942444E-002	-2,400147941362876E-002
7,466507703065872E-002	-2,433459648212497E-002
6,372381746768951E-002	-2,491810663507632E-002
7,105723768472672E-002	7,745460615499052E-003
8,197836577892303E-002	1,067135723921334E-002
1,079238504171371E-001	1,403939904452678E-002
1,189574301242828E-001	1,485410294177811E-002
1,299422085285187E-001	1,544027935920489E-002
1,409259140491486E-001	1,592174204516700E-002
1,519085615873337E-001	1,638516585889097E-002
1,779081672430038E-001	1,773549960105611E-002
1,889714300632477E-001	1,817985489409085E-002
1,999052762985229E-001	1,849376507804357E-002
2,109462767839432E-001	1,915840727572987E-002
2,219246774911880E-001	1,999576021828247E-002
2,329911738634110E-001	2,017112760465045E-002
2,439218163490295E-001	2,092790864480776E-002
2,549574971199036E-001	2,152142249461675E-002
2,659253180027008E-001	2,211026408177630E-002
2,769153714179993E-001	2,290690976385823E-002
2,879510819911957E-001	2,366475196362850E-002
2,989581525325775E-001	2,455714248491048E-002
3,098898231983185E-001	2,556328463914621E-002
3,209096491336823E-001	2,623765391237814E-002
3,318689465522766E-001	2,747745025489062E-002
3,428930044174194E-001	2,843322542806476E-002
3,538607656955719E-001	2,956811343230785E-002
3,633584082126617E-001	3,079019486904144E-002
3,386380374431610E-001	-1,234172280035433E-002
3,276107907295227E-001	-1,382396690355056E-002
3,166101276874542E-001	-1,510280099379693E-002
3,056211173534393E-001	-1,601514362361434E-002
2,946342229843140E-001	-1,652950560209221E-002
2,686102688312531E-001	-1,773359000011016E-002
2,576445341110229E-001	-1,820514589134187E-002
2,466555535793304E-001	-1,845998979418556E-002
2,356209009885788E-001	-1,910885577571106E-002
2,246297895908356E-001	-1,907826019628876E-002
2,136163413524628E-001	-1,947879369415906E-002
2,026368826627731E-001	-2,010152172725715E-002
1,916139423847198E-001	-2,029273373813739E-002
1,806047558784485E-001	-2,079117148686138E-002
1,696433275938034E-001	-2,089017273222758E-002
1,586914360523224E-001	-2,176661160612847E-002
1,476599872112274E-001	-2,154728051674387E-002
1,365935355424881E-001	-2,199980768434928E-002
1,256140619516373E-001	-2,265189352490576E-002
1,146123260259628E-001	-2,282899080051318E-002
1,036264747381210E-001	-2,317813014774905E-002
9,264594316482544E-002	-2,385868993426105E-002
8,163889497518539E-002	-2,456690804441075E-002
7,064776122570038E-002	-2,455679127281957E-002
6,327614188194275E-002	2,843182302310909E-003
7,490694522857666E-002	9,383349235880134E-003
8,592142164707184E-002	1,157598514146227E-002
9,694650769233704E-002	1,235236229796201E-002
1,228941231966019E-001	1,469314327085969E-002
1,339849829673767E-001	1,545973634812170E-002
1,449389904737473E-001	1,636146403264623E-002
1,559322327375412E-001	1,689280739689517E-002
1,819572746753693E-001	1,856132271233130E-002
1,929314583539963E-001	1,828603613123256E-002
2,039575874805450E-001	1,893012747597020E-002
2,149476855993271E-001	1,929889713695354E-002
2,258709371089935E-001	2,000874229189425E-002
2,369342446327209E-001	2,047647852022139E-002
2,479264140129089E-001	2,100561708640375E-002
2,589323818683624E-001	2,184145191535619E-002
2,699447572231293E-001	2,247507350370553E-002
2,809072732925415E-001	2,317480197840875E-002
2,919376194477081E-001	2,359277255891351E-002
3,028884530067444E-001	2,470481358897003E-002
3,139103353023529E-001	2,554100095383349E-002
3,248739242553711E-001	2,670673380796673E-002
3,359096050262451E-001	2,766441694135816E-002
3,468615114688873E-001	2,905793310896517E-002
3,578897416591644E-001	3,030604239110185E-002
3,604431450366974E-001	5,974296558431687E-003
3,496228158473969E-001	-9,585350390403258E-003
3,235967159271240E-001	-1,469951727752533E-002
3,125758171081543E-001	-1,569499237626179E-002
3,016716837882996E-001	-1,606572943193088E-002
2,906710505485535E-001	-1,682100237000367E-002
2,645886838436127E-001	-1,885560405551384E-002
2,536336183547974E-001	-1,842879306281649E-002
2,426753789186478E-001	-1,882737865849369E-002
2,316428422927856E-001	-1,911356018576449E-002
2,206007838249207E-001	-1,928103811668636E-002
2,096382826566696E-001	-1,994978351326104E-002
1,986291259527206E-001	-1,989803625434028E-002
1,876316219568253E-001	-2,044592164384090E-002
1,765916645526886E-001	-2,087549403222516E-002
1,656387299299240E-001	-2,132069894408538E-002
1,546062082052231E-001	-2,160366067012852E-002
1,436808556318283E-001	-2,230936792532001E-002
1,326515376567841E-001	-2,255855068506202E-002
1,216402351856232E-001	-2,254047643792642E-002
1,106034815311432E-001	-2,317622093647109E-002
9,965372085571289E-002	-2,357958373451968E-002
8,864983916282654E-002	-2,398294558911909E-002
7,763005793094635E-002	-2,443908025007757E-002
6,665590405464172E-002	-2,492163603003272E-002
6,811770051717758E-002	9,751376629739961E-003
7,896033674478531E-002	1,016609272402193E-002
8,997480571269989E-002	1,148625160264299E-002
1,009532213211060E-001	1,302266377327517E-002
1,268923431634903E-001	1,508616781312516E-002
1,379810720682144E-001	1,583330304472644E-002
1,489276736974716E-001	1,624932310248070E-002
1,599400192499161E-001	1,666251216940713E-002
1,709131002426147E-001	1,735870612436774E-002
1,969328671693802E-001	1,846911221158125E-002
2,079409658908844E-001	1,890978973602209E-002
2,189204394817352E-001	1,977406078771723E-002
2,299444973468781E-001	2,040198847680588E-002
2,409260720014572E-001	2,033821693354793E-002
2,519224882125854E-001	2,159531111990665E-002
2,629200518131256E-001	2,164680887856067E-002
2,739450931549072E-001	2,246828335854739E-002
2,849161028862000E-001	2,336173589517576E-002
2,959241867065430E-001	2,410595858277207E-002
3,069131672382355E-001	2,502279294033855E-002
3,178926706314087E-001	2,603346042734400E-002
3,288615345954895E-001	2,742007982871869E-002
3,399173617362976E-001	2,791607685786507E-002
3,509085178375244E-001	2,937920224778487E-002
3,618773818016052E-001	3,055412975138283E-002
3,567101359367371E-001	-8,655785729792503E-003
3,456404805183411E-001	-1,112392031447806E-002
3,196270763874054E-001	-1,487674994779001E-002
3,086327314376831E-001	-1,578838391429196E-002
2,976278662681580E-001	-1,658079985928554E-002
2,866728007793427E-001	-1,713655359000971E-002
2,756413519382477E-001	-1,713301763508449E-002
2,496449351310730E-001	-1,799872604007968E-002
2,386315315961838E-001	-1,912869884492665E-002
2,276244759559631E-001	-1,931930895665968E-002
2,166163474321365E-001	-1,980812597119241E-002
2,056612670421600E-001	-1,995993376961752E-002
1,946255713701248E-001	-2,050566155877379E-002
1,836217194795609E-001	-2,094467841016012E-002
1,726740598678589E-001	-2,068792481360210E-002
1,616479307413101E-001	-2,149510918348418E-002
1,506589204072952E-001	-2,159135231098239E-002
1,396412551403046E-001	-2,204490354092237E-002
1,286437511444092E-001	-2,235237747016877E-002
1,176207959651947E-001	-2,302801957517253E-002
1,066360175609589E-001	-2,340411118792773E-002
9,566821902990341E-002	-2,344082473023765E-002
8,462934941053391E-002	-2,428981728452423E-002
7,363184541463852E-002	-2,456496193634750E-002
6,322736293077469E-002	-2,487526461482048E-002
8,694723248481750E-002	1,157618449623340E-002
9,794261306524277E-002	1,287907396989693E-002
1,089231520891190E-001	1,353989334570042E-002
1,199227795004845E-001	1,439527887244672E-002
1,309351176023483E-001	1,504973092212625E-002
1,569389551877975E-001	1,606630746533080E-002
1,679173558950424E-001	1,717604773613046E-002
1,706352382898331E-001	1,645951904356480E-002