Folder: nife-mo-alkaline-oer-data/fig_5_ni90fe10_ceo2_tio2_zro2/Activity_1

Note: README.md
# Raw Data and Plot Scripts for the Manuscript

This repository contains the raw data and plotting scripts for the figures in the following manuscript:

**Varghese, N. K., Mkrtchian, E., Singh, A., Savio, L., Boccia, M., Marzocchi, V., & Comite, A., NiFe on CeO2, TiO2 and ZrO2 Supports as Efficient Oxygen Evolution Reaction Catalysts in Alkaline Media. ACS Appl. Energy Mater. 2025; doi:10.1021/acsaem.4c03268**

Each folder corresponds to a specific figure in the paper, with the folder name matching the figure number/details. Inside each folder, you will find the raw data files and the Python scripts used to generate the plots for that figure.

The **XPS plots** were generated using a commercial software. The folder `fig_3_and_si_xps` contains only the raw XPS data.

If you use this data, please cite the above article.

## License

This project is licensed under the **GNU General Public License (GPL)**, which allows you to freely use, modify and distribute the code, provided that any derivative works are also licensed under GPL.

File: TiO2_Activity_1.mpt
EC-Lab ASCII FILE
Nb header lines : 61

Linear Sweep Voltammetry

Run on channel : 1 (SN 10336)
User :
CE vs. WE compliance from -10 V to 10 V
Electrode connection : standard
Potential control : Ewe
Ewe ctrl range : min = -2,50 V, max = 2,50 V
Safety Limits :
	Do not start on E overload
Acquisition started on : 10/07/2024 14:36:26.929
Technique started on : 10/07/2024 14:36:26.929
Loaded Setting File :  C:\EC-lab data\Neethu\2024_10_01_Ni90Fe10_TiO2\Activity_1.mps
Saved on :
	File : Activity_1_C01.mpr
	Directory : C:\EC-lab data\Neethu\2024_10_07_Ni90Fe10_TiO2\
	Host : 10.54.33.65
Device : VMP3 (SN 0498)
Address : USB
EC-Lab for windows v11.52 (software)
Internet server v11.52 (firmware)
Command interpretor v11.50 (firmware)
Electrode material :
Initial state :
Electrolyte :
Comments :
Electrode surface area : 0,001 cm²
Characteristic mass : 0,001 g
Volume (V) : 0,001 cm³
Thickness (t) : 0,000 cm
Diameter (d) : 0,000 cm
Cell constant (k=t/A) : 0,000 cm-1
Cycle Definition : Charge/Discharge alternance
tR (h:m:s)          0:00:5,0000
dER/dt (mV/h)       0,0
dER (mV)            0
dtR (s)             0,0000
dE/dt               5,000
dE/dt unit          mV/s
Ei (V)              0,064
vs.                 Ref
EL (V)              0,900
vs.                 Ref
record              <I>
dI                  0,000
unit dI             µA
tI (s)              0,0000
step percent        50
N                   10
E range min (V)     -2,500
E range max (V)     2,500
I Range             Auto
I Range min         Unset
I Range max         Unset
I Range init        Unset
Bandwidth           5

mode	ox/red	error	control changes	time/s	control/V	Ewe/V	<I>/mA	(Q-Qo)/C	I Range	P/W
3	1	0	1	10/07/2024 14:36:26.9290	0,0000000E+000	4,8964316E-001	0,000000000000000E+000	0,0000000E+000	14	0,0000000E+000
2	0	0	1	10/07/2024 14:36:33.7788	7,3129132E-002	7,2316021E-002	-1,598509538996875E-001	-5,2960316E-004	12	-1,1559785E-005
2	0	0	0	10/07/2024 14:36:35.9786	8,4128276E-002	8,3370805E-002	-1,062006650158877E-001	-8,1061333E-004	12	-8,8540346E-006
2	0	0	1	10/07/2024 14:36:38.1784	9,5127411E-002	9,4372556E-002	-8,299584770015528E-002	-1,0157556E-003	12	-7,8325302E-006
2	0	0	0	10/07/2024 14:36:40.3782	1,0612654E-001	1,0538385E-001	-6,862732749844126E-002	-1,1809502E-003	12	-7,2322118E-006
2	0	0	1	10/07/2024 14:36:42.5780	1,1712568E-001	1,1634528E-001	-5,844155669871218E-002	-1,3196890E-003	12	-6,7993992E-006
2	0	0	0	10/07/2024 14:36:44.7778	1,2812482E-001	1,2735446E-001	-5,070243847224853E-002	-1,4388997E-003	12	-6,4571814E-006
2	0	0	1	10/07/2024 14:36:46.9977	1,3922372E-001	1,3845351E-001	-4,463488833504514E-002	-1,5438377E-003	13	-6,1798569E-006
2	0	0	1	10/07/2024 14:36:49.1976	1,5022309E-001	1,4947994E-001	-3,943841200973408E-002	-1,6356782E-003	13	-5,8952514E-006
2	0	0	0	10/07/2024 14:36:51.3974	1,6122222E-001	1,6045730E-001	-3,499573826063387E-002	-1,7169473E-003	13	-5,6153217E-006
2	0	0	1	10/07/2024 14:36:53.5972	1,7222136E-001	1,7144844E-001	-3,118217749364863E-002	-1,7891964E-003	13	-5,3461358E-006
2	0	0	0	10/07/2024 14:36:55.7970	1,8322051E-001	1,8244912E-001	-2,783018752088873E-002	-1,8536232E-003	13	-5,0775930E-006
2	0	0	1	10/07/2024 14:36:57.9968	1,9421962E-001	1,9345298E-001	-2,482809809241415E-002	-1,9110566E-003	13	-4,8030697E-006
2	0	0	0	10/07/2024 14:37:00.1966	2,0521878E-001	2,0442396E-001	-2,218409738587335E-002	-1,9622690E-003	13	-4,5349611E-006
2	0	0	1	10/07/2024 14:37:02.3965	2,1621780E-001	2,1542244E-001	-1,975277646864852E-002	-2,0079222E-003	13	-4,2551910E-006
2	0	0	1	10/07/2024 14:37:04.5964	2,2721703E-001	2,2646987E-001	-1,761187638312917E-002	-2,0485835E-003	13	-3,9885595E-006
2	0	0	0	10/07/2024 14:37:06.7962	2,3821618E-001	2,3745786E-001	-1,562925208929625E-002	-2,0847074E-003	13	-3,7112886E-006
2	0	0	1	10/07/2024 14:37:08.9960	2,4921532E-001	2,4848187E-001	-1,384388664188266E-002	-2,1167102E-003	13	-3,4399548E-006
2	0	0	0	10/07/2024 14:37:11.1958	2,6021445E-001	2,5945815E-001	-1,223676745752620E-002	-2,1449765E-003	13	-3,1749291E-006
2	0	0	1	10/07/2024 14:37:13.3956	2,7121356E-001	2,7046409E-001	-1,077431531631187E-002	-2,1698284E-003	13	-2,9140654E-006
2	0	0	0	10/07/2024 14:37:15.5954	2,8221270E-001	2,8145528E-001	-9,453693422150440E-003	-2,1916197E-003	13	-2,6607920E-006
2	0	0	1	10/07/2024 14:37:17.7953	2,9321218E-001	2,9245946E-001	-8,229969729158515E-003	-2,2105970E-003	13	-2,4069325E-006
2	0	0	1	10/07/2024 14:37:19.9952	3,0421102E-001	3,0342275E-001	-7,126810639207559E-003	-2,2270042E-003	13	-2,1624364E-006
2	0	0	0	10/07/2024 14:37:22.1950	3,1521013E-001	3,1445417E-001	-6,113005916668815E-003	-2,2410930E-003	13	-1,9222603E-006
2	0	0	1	10/07/2024 14:37:24.3948	3,2620925E-001	3,2545379E-001	-5,220212071369522E-003	-2,2530640E-003	13	-1,6989378E-006
2	0	0	0	10/07/2024 14:37:26.6146	3,3730841E-001	3,3647037E-001	-5,358859968528487E-003	-2,2631944E-003	14	-1,8030976E-006
2	0	0	1	10/07/2024 14:37:28.8144	3,4830752E-001	3,4742969E-001	-4,597645204073676E-003	-2,2715032E-003	14	-1,5973585E-006
2	0	0	0	10/07/2024 14:37:31.0142	3,5930666E-001	3,5842401E-001	-3,880276502411809E-003	-2,2782143E-003	14	-1,3907843E-006
2	0	0	1	10/07/2024 14:37:33.2140	3,7030578E-001	3,6942682E-001	-3,260087451523770E-003	-2,2834884E-003	14	-1,2043637E-006
2	0	0	1	10/07/2024 14:37:35.4140	3,8130495E-001	3,8036919E-001	-2,704126141115253E-003	-2,2874563E-003	14	-1,0285663E-006
2	0	0	0	10/07/2024 14:37:37.6138	3,9230406E-001	3,9136985E-001	-2,181846422190530E-003	-2,2902510E-003	14	-8,5390889E-007
2	0	0	1	10/07/2024 14:37:39.8136	4,0330321E-001	4,0244898E-001	-1,673981265358684E-003	-2,2919646E-003	14	-6,7369206E-007
2	0	0	0	10/07/2024 14:37:42.0134	4,1430238E-001	4,1349107E-001	-1,180810978238292E-003	-2,2926705E-003	14	-4,8825478E-007
2	0	0	1	10/07/2024 14:37:44.2132	4,2530146E-001	4,2452574E-001	-7,250295967071198E-004	-2,2924407E-003	14	-3,0779373E-007
2	0	0	0	10/07/2024 14:37:46.4130	4,3630064E-001	4,3549454E-001	-2,640271884401457E-004	-2,2913273E-003	14	-1,1498240E-007
2	1	0	1	10/07/2024 14:37:48.6128	4,4729975E-001	4,4650799E-001	2,099550236880033E-004	-2,2893443E-003	14	9,3746593E-008
2	1	0	1	10/07/2024 14:37:50.8128	4,5829889E-001	4,5755005E-001	7,588777043771866E-004	-2,2864668E-003	14	3,4722453E-007
2	1	0	0	10/07/2024 14:37:53.0126	4,6929801E-001	4,6850300E-001	1,686329062240900E-003	-2,2823454E-003	14	7,9005019E-007
2	1	0	1	10/07/2024 14:37:55.2124	4,8029718E-001	4,7955248E-001	3,718317052923081E-003	-2,2753850E-003	14	1,7831281E-006
2	1	0	0	10/07/2024 14:37:57.4122	4,9129629E-001	4,9059135E-001	7,378360772436234E-003	-2,2628594E-003	14	3,6197600E-006
2	1	0	1	10/07/2024 14:37:59.6320	5,0239539E-001	5,0169390E-001	1,355466113532439E-002	-2,2393626E-003	13	6,8002910E-006
2	1	0	0	10/07/2024 14:38:01.8318	5,1339459E-001	5,1267231E-001	2,443365670255931E-002	-2,1978358E-003	13	1,2526459E-005
2	1	0	1	10/07/2024 14:38:04.0316	5,2439374E-001	5,2365178E-001	4,504386511844616E-002	-2,1219631E-003	13	2,3587299E-005
2	1	0	1	10/07/2024 14:38:06.2316	5,3539282E-001	5,3464395E-001	8,114599214144458E-002	-1,9871865E-003	13	4,3384214E-005
2	1	0	0	10/07/2024 14:38:08.4514	5,4649204E-001	5,4573905E-001	1,835064039082011E-001	-1,7016111E-003	12	1,0014661E-004
2	1	0	1	10/07/2024 14:38:10.6512	5,5749112E-001	5,5678427E-001	2,845427005101930E-001	-1,1763207E-003	12	1,5842890E-004
[...]
2	1	0	0	10/07/2024 14:38:17.2506	5,9048849E-001	5,8977354E-001	3,996527700763099E-001	1,1966319E-003	12	2,3570463E-004
2	1	0	1	10/07/2024 14:38:19.4504	6,0148770E-001	6,0078597E-001	4,329940615487944E-001	2,1105702E-003	12	2,6013676E-004
2	1	0	1	10/07/2024 14:38:21.6504	6,1248690E-001	6,1174434E-001	4,979297187729950E-001	3,1310059E-003	12	3,0460570E-004
2	1	0	0	10/07/2024 14:38:23.8502	6,2348598E-001	6,2274170E-001	6,001325804115090E-001	4,3350169E-003	12	3,7372758E-004
2	1	0	1	10/07/2024 14:38:26.0500	6,3448507E-001	6,3376468E-001	7,430131807331968E-001	5,8081145E-003	12	4,7089552E-004
2	1	0	0	10/07/2024 14:38:28.2498	6,4548421E-001	6,4473563E-001	9,331427422983616E-001	7,6456275E-003	12	6,0163037E-004
2	1	0	1	10/07/2024 14:38:30.4696	6,5658337E-001	6,5584457E-001	1,187834053040563E+000	9,9902721E-003	11	7,7903451E-004
2	1	0	0	10/07/2024 14:38:32.6694	6,6758251E-001	6,6685796E-001	1,517879072137497E+000	1,2954886E-002	11	1,0122097E-003
2	1	0	1	10/07/2024 14:38:34.8692	6,7858160E-001	6,7785645E-001	1,949415725543929E+000	1,6753998E-002	11	1,3214240E-003
2	1	0	1	10/07/2024 14:38:37.0691	6,8958074E-001	6,8885291E-001	2,500278015133771E+000	2,1632176E-002	11	1,7223238E-003
2	1	0	0	10/07/2024 14:38:39.2690	7,0057994E-001	6,9989496E-001	3,183530908491861E+000	2,7868107E-002	11	2,2281373E-003
2	1	0	1	10/07/2024 14:38:41.4688	7,1157902E-001	7,1087563E-001	3,995724190119439E+000	3,5751164E-002	11	2,8404628E-003
2	1	0	0	10/07/2024 14:38:43.6686	7,2257817E-001	7,2184122E-001	4,927566547242421E+000	4,5555215E-002	11	3,5569207E-003
2	1	0	1	10/07/2024 14:38:45.8684	7,3357731E-001	7,3287588E-001	5,966337741671509E+000	5,7531573E-002	11	4,3725851E-003
2	1	0	0	10/07/2024 14:38:48.0682	7,4457645E-001	7,4388301E-001	7,106039543541122E+000	7,1911700E-002	11	5,2860621E-003
2	1	0	1	10/07/2024 14:38:50.2680	7,5557566E-001	7,5489002E-001	8,310259999128675E+000	8,8871248E-002	11	6,2733325E-003
2	1	0	1	10/07/2024 14:38:52.4679	7,6657504E-001	7,6586229E-001	9,572768156727253E+000	1,0854802E-001	11	7,3314221E-003
2	1	0	0	10/07/2024 14:38:54.6678	7,7757382E-001	7,7682561E-001	1,090105179932112E+001	1,3107035E-001	11	8,4682163E-003
2	1	0	1	10/07/2024 14:38:56.8876	7,8867304E-001	7,8794187E-001	1,227618570318296E+001	1,5683903E-001	10	9,6729212E-003
2	1	0	0	10/07/2024 14:38:59.0874	7,9967207E-001	7,9896581E-001	1,391695114166017E+001	1,8543208E-001	10	1,1119168E-002
2	1	0	1	10/07/2024 14:39:01.2872	8,1067121E-001	8,0995905E-001	1,538263929930935E+001	2,1764082E-001	10	1,2459308E-002
2	1	0	0	10/07/2024 14:39:03.4870	8,2167041E-001	8,2100546E-001	1,686530698494579E+001	2,5309896E-001	10	1,3846509E-002
2	1	0	1	10/07/2024 14:39:05.6868	8,3266956E-001	8,3197433E-001	1,835875073230721E+001	2,9186499E-001	10	1,5274010E-002
2	1	0	1	10/07/2024 14:39:07.8867	8,4366864E-001	8,4297287E-001	1,987319808934575E+001	3,3399633E-001	10	1,6752567E-002
2	1	0	0	10/07/2024 14:39:10.0866	8,5466778E-001	8,5399473E-001	2,145684062420909E+001	3,7956667E-001	10	1,8324029E-002
2	1	0	1	10/07/2024 14:39:12.2864	8,6566693E-001	8,6496896E-001	2,305246797129666E+001	4,2854369E-001	10	1,9939668E-002
2	1	0	0	10/07/2024 14:39:14.4862	8,7666613E-001	8,7600034E-001	2,465112364954422E+001	4,8102927E-001	10	2,1594392E-002
2	1	0	1	10/07/2024 14:39:16.6860	8,8766527E-001	8,8701177E-001	2,626969461511328E+001	5,3702968E-001	10	2,3301529E-002
2	1	0	0	10/07/2024 14:39:18.8858	8,9866430E-001	8,9798802E-001	2,787649280630262E+001	5,9662956E-001	10	2,5032757E-002
2	1	0	0	10/07/2024 14:39:19.1430	9,0001452E-001	8,9920610E-001	2,824172570970323E+001	6,0381746E-001	10	2,5395133E-002

File: ZrO2_Activity_1.mpt
EC-Lab ASCII FILE
Nb header lines : 62

Linear Sweep Voltammetry

Run on channel : 1 (SN 10336)
User :
CE vs. WE compliance from -10 V to 10 V
Electrode connection : standard
Potential control : Ewe
Ewe ctrl range : min = -2,50 V, max = 2,50 V
Safety Limits :
	Do not start on E overload
Acquisition started on : 10/01/2024 18:57:04.938
Technique started on : 10/01/2024 18:57:04.938
Loaded Setting File :  C:\EC-lab data\Neethu\2024_10_01_Ni90Fe10_TiO2\Activity_1.mps
Saved on :
	File : Activity_1_C01.mpr
	Directory : C:\EC-lab data\Neethu\2024_10_01_Ni90Fe10_ZrO2\
	Host : 10.54.33.65
Device : VMP3 (SN 0498)
Address : USB
EC-Lab for windows v11.52 (software)
Internet server v11.52 (firmware)
Command interpretor v11.50 (firmware)
Electrode material :
Initial state :
Electrolyte :
Comments :
Electrode surface area : 0,001 cm²
Characteristic mass : 0,001 g
Volume (V) : 0,001 cm³
Thickness (t) : 0,000 cm
Diameter (d) : 0,000 cm
Cell constant (k=t/A) : 0,000 cm-1
Record Ece
Cycle Definition : Charge/Discharge alternance
tR (h:m:s)          0:00:5,0000
dER/dt (mV/h)       0,0
dER (mV)            0
dtR (s)             0,0000
dE/dt               5,000
dE/dt unit          mV/s
Ei (V)              0,064
vs.                 Ref
EL (V)              0,900
vs.                 Ref
record              <I>
dI                  0,000
unit dI             µA
tI (s)              0,0000
step percent        50
N                   10
E range min (V)     -2,500
E range max (V)     2,500
I Range             Auto
I Range min         Unset
I Range max         Unset
I Range init        Unset
Bandwidth           5

mode	ox/red	error	control changes	time/s	control/V	Ewe/V	<I>/mA	(Q-Qo)/C	I Range	<Ece>/V	P/W	Ewe-Ece/V
3	1	0	1	10/01/2024 18:57:04.9380	0,0000000E+000	3,0647519E-001	0,000000000000000E+000	0,0000000E+000	14	2,1413505E-002	0,0000000E+000	2,8506169E-001
2	0	0	1	10/01/2024 18:57:12.1877	7,5103976E-002	7,4326523E-002	-3,129670235393067E-003	-1,2115980E-005	14	2,2489414E-002	-2,3261751E-007	5,1837109E-002
2	0	0	1	10/01/2024 18:57:14.7875	8,8103592E-002	8,7352850E-002	-2,029528998663030E-003	-1,7669543E-005	14	2,2690985E-002	-1,7728514E-007	6,4661860E-002
2	0	0	0	10/01/2024 18:57:17.3872	1,0110209E-001	1,0035174E-001	-1,499319581065526E-003	-2,1344737E-005	14	2,2836514E-002	-1,5045933E-007	7,7515222E-002
2	0	0	1	10/01/2024 18:57:19.9870	1,1410104E-001	1,1333509E-001	-1,159733256717860E-003	-2,3961691E-005	14	2,2934049E-002	-1,3143847E-007	9,0401039E-002
2	1	0	0	10/01/2024 18:57:22.5868	1,2709999E-001	1,2632905E-001	-9,094539668813408E-004	-2,5841937E-005	14	2,3017276E-002	-1,1489045E-007	1,0331178E-001
2	1	0	1	10/01/2024 18:57:25.1866	1,4009894E-001	1,3932726E-001	-7,294012847933219E-004	-2,7153377E-005	14	2,3075268E-002	-1,0162548E-007	1,1625199E-001
2	1	0	0	10/01/2024 18:57:27.7864	1,5309790E-001	1,5235409E-001	-5,337022417311980E-004	-2,8006840E-005	14	2,3113279E-002	-8,1311718E-008	1,2924081E-001
2	1	0	1	10/01/2024 18:57:30.3862	1,6609685E-001	1,6535443E-001	-3,664015476906850E-004	-2,8472348E-005	14	2,3140833E-002	-6,0586117E-008	1,4221360E-001
2	1	0	0	10/01/2024 18:57:32.9860	1,7909579E-001	1,7835370E-001	-2,435982269223752E-004	-2,8599645E-005	14	2,3164451E-002	-4,3446644E-008	1,5518925E-001
2	1	0	1	10/01/2024 18:57:35.5858	1,9209474E-001	1,9135617E-001	-1,302641503924244E-004	-2,8425273E-005	14	2,3177892E-002	-2,4926848E-008	1,6817828E-001
2	1	0	0	10/01/2024 18:57:38.1856	2,0509368E-001	2,0431615E-001	-4,508209644102455E-005	-2,7977991E-005	14	2,3180813E-002	-9,2110009E-009	1,8113534E-001
2	1	0	1	10/01/2024 18:57:40.7854	2,1809265E-001	2,1735361E-001	5,104189196673001E-005	-2,7278958E-005	14	2,3179602E-002	1,1094140E-008	1,9417401E-001
2	1	0	0	10/01/2024 18:57:43.3852	2,3109160E-001	2,3035075E-001	1,226776366139986E-004	-2,6343403E-005	14	2,3170533E-002	2,8258885E-008	2,0718022E-001
2	1	0	1	10/01/2024 18:57:45.9850	2,4409054E-001	2,4340625E-001	2,114786135605485E-004	-2,5182504E-005	14	2,3157978E-002	5,1475215E-008	2,2024827E-001
2	1	0	0	10/01/2024 18:57:48.5848	2,5708950E-001	2,5638431E-001	2,872822727313139E-004	-2,3806719E-005	14	2,3137417E-002	7,3654668E-008	2,3324689E-001
2	1	0	1	10/01/2024 18:57:51.1846	2,7008846E-001	2,6933262E-001	3,691598110788542E-004	-2,2222153E-005	14	2,3112521E-002	9,9426778E-008	2,4622010E-001
2	1	0	0	10/01/2024 18:57:53.7844	2,8308737E-001	2,8235632E-001	4,229002716740413E-004	-2,0431618E-005	14	2,3071785E-002	1,1940857E-007	2,5928453E-001
2	1	0	1	10/01/2024 18:57:56.3842	2,9608637E-001	2,9534924E-001	4,681598302485072E-004	-1,8437104E-005	14	2,3039270E-002	1,3827065E-007	2,7230996E-001
2	1	0	0	10/01/2024 18:57:58.9840	3,0908528E-001	3,0832833E-001	5,188426478014698E-004	-1,6241856E-005	14	2,2986995E-002	1,5997389E-007	2,8534132E-001
2	1	0	1	10/01/2024 18:58:01.5838	3,2208422E-001	3,2128519E-001	5,563918920007925E-004	-1,3845869E-005	14	2,2931146E-002	1,7876047E-007	2,9835403E-001
2	1	0	0	10/01/2024 18:58:04.1836	3,3508319E-001	3,3432263E-001	5,880891157866316E-004	-1,1248141E-005	14	2,2875518E-002	1,9661150E-007	3,1144711E-001
2	1	0	1	10/01/2024 18:58:06.7834	3,4808210E-001	3,4731764E-001	6,013703000657187E-004	-8,4514822E-006	14	2,2812635E-002	2,0886651E-007	3,2450500E-001
2	1	0	1	10/01/2024 18:58:09.3831	3,6108077E-001	3,6029539E-001	5,958008141224175E-004	-5,4581205E-006	14	2,2737516E-002	2,1466428E-007	3,3755788E-001
2	1	0	1	10/01/2024 18:58:11.9829	3,7408036E-001	3,7327626E-001	5,999371025296107E-004	-2,2692918E-006	14	2,2661591E-002	2,2394228E-007	3,5061467E-001
2	1	0	1	10/01/2024 18:58:14.5826	3,8707897E-001	3,8624543E-001	6,353337105994878E-004	1,1162838E-006	14	2,2579204E-002	2,4539474E-007	3,6366624E-001
2	1	0	0	10/01/2024 18:58:17.1824	4,0007794E-001	3,9928076E-001	6,516474531633497E-004	4,7010899E-006	14	2,2492923E-002	2,6019029E-007	3,7678784E-001
2	1	0	1	10/01/2024 18:58:19.7822	4,1307688E-001	4,1235960E-001	6,846731521982534E-004	8,4973908E-006	14	2,2396339E-002	2,8233154E-007	3,8996327E-001
2	1	0	0	10/01/2024 18:58:22.3820	4,2607588E-001	4,2530689E-001	7,243514717550949E-004	1,2515012E-005	14	2,2288345E-002	3,0807166E-007	4,0301853E-001
2	1	0	1	10/01/2024 18:58:24.9818	4,3907481E-001	4,3830508E-001	7,835422895818140E-004	1,6776681E-005	14	2,2177367E-002	3,4343057E-007	4,1612771E-001
2	1	0	0	10/01/2024 18:58:27.5816	4,5207372E-001	4,5133933E-001	8,466097719634332E-004	2,1322619E-005	14	2,2056950E-002	3,8210828E-007	4,2928240E-001
2	1	0	1	10/01/2024 18:58:30.1814	4,6507266E-001	4,6429726E-001	1,086145030911917E-003	2,6295849E-005	14	2,1924475E-002	5,0429418E-007	4,4237280E-001
2	1	0	0	10/01/2024 18:58:32.7812	4,7807163E-001	4,7728908E-001	1,700760537948934E-003	3,2115364E-005	14	2,1756979E-002	8,1175443E-007	4,5553210E-001
2	1	0	1	10/01/2024 18:58:35.3810	4,9107060E-001	4,9036580E-001	3,380052561644954E-003	4,0149094E-005	14	2,1484476E-002	1,6574622E-006	4,6888134E-001
2	1	0	0	10/01/2024 18:58:37.9808	5,0406951E-001	5,0340110E-001	8,894221810597576E-003	5,5828772E-005	14	2,0832602E-002	4,4773610E-006	4,8256850E-001
2	1	0	1	10/01/2024 18:58:40.6006	5,1716852E-001	5,1646614E-001	2,494446927171565E-002	9,7878030E-005	13	1,8941337E-002	1,2882973E-005	4,9752480E-001
2	1	0	0	10/01/2024 18:58:43.2004	5,3016740E-001	5,2947176E-001	5,098597910952074E-002	1,9850093E-004	13	1,4371306E-002	2,6995636E-005	5,1510048E-001
[...]
2	1	0	0	10/01/2024 18:58:58.8192	6,0826111E-001	6,0758626E-001	1,416229149273890E-001	1,4573848E-003	12	-3,2430068E-002	8,6048138E-005	6,4001632E-001
2	1	0	1	10/01/2024 18:59:01.4190	6,2126011E-001	6,2055051E-001	1,858346158915248E-001	1,8814693E-003	12	-4,5886569E-002	1,1531977E-004	6,6643709E-001
2	1	0	0	10/01/2024 18:59:04.0188	6,3425899E-001	6,3354975E-001	2,557729756831280E-001	2,4511279E-003	12	-6,1303433E-002	1,6204490E-004	6,9485319E-001
2	1	0	1	10/01/2024 18:59:06.6185	6,4725798E-001	6,4657336E-001	3,690941519267437E-001	3,2544357E-003	12	-7,8227349E-002	2,3864645E-004	7,2480071E-001
2	1	0	1	10/01/2024 18:59:09.2182	6,6025680E-001	6,5954411E-001	5,522262436669774E-001	4,4367150E-003	12	-9,6812077E-002	3,6421756E-004	7,5635618E-001
2	1	0	0	10/01/2024 18:59:11.8180	6,7325586E-001	6,7255288E-001	8,411992786287459E-001	6,2250649E-003	12	-1,1865314E-001	5,6575099E-004	7,9120600E-001
2	1	0	1	10/01/2024 18:59:14.4378	6,8635482E-001	6,8566144E-001	1,279553453549916E+000	8,9736748E-003	11	-1,4546011E-001	8,7734044E-004	8,3112156E-001
2	1	0	0	10/01/2024 18:59:17.0376	6,9935381E-001	6,9866067E-001	1,877220976379731E+000	1,3049716E-002	11	-1,8095227E-001	1,3115405E-003	8,7961292E-001
2	1	0	1	10/01/2024 18:59:19.6374	7,1235275E-001	7,1164608E-001	2,630396857823925E+000	1,8887211E-002	11	-2,3105295E-001	1,8719116E-003	9,4269902E-001
2	1	0	0	10/01/2024 18:59:22.2372	7,2535169E-001	7,2462529E-001	3,518155437275389E+000	2,6864463E-002	11	-3,1168881E-001	2,5493444E-003	1,0363141E+000
2	1	0	1	10/01/2024 18:59:24.8370	7,3835063E-001	7,3763406E-001	4,515577712499628E+000	3,7299175E-002	11	-4,4613335E-001	3,3308440E-003	1,1837674E+000
2	1	0	0	10/01/2024 18:59:27.4368	7,5134957E-001	7,5065875E-001	5,602653698619775E+000	5,0452024E-002	11	-6,2917328E-001	4,2056809E-003	1,3798320E+000
2	1	0	1	10/01/2024 18:59:30.0366	7,6434851E-001	7,6367193E-001	6,757537122283665E+000	6,6519432E-002	11	-7,9245168E-001	5,1605413E-003	1,5561236E+000
2	1	0	0	10/01/2024 18:59:32.6364	7,7734751E-001	7,7662975E-001	7,968343380222009E+000	8,5666120E-002	11	-9,5250744E-001	6,1884527E-003	1,7291372E+000
2	1	0	1	10/01/2024 18:59:35.2362	7,9034644E-001	7,8964168E-001	9,217413933031107E+000	1,0802171E-001	11	-1,1313738E+000	7,2784540E-003	1,9210155E+000
2	1	0	0	10/01/2024 18:59:37.8360	8,0334526E-001	8,0265898E-001	1,048672370028062E+001	1,3364494E-001	11	-1,3049533E+000	8,4172627E-003	2,1076124E+000
2	1	0	1	10/01/2024 18:59:40.4758	8,1654429E-001	8,1585878E-001	1,184907958506193E+001	1,6314094E-001	10	-1,4463322E+000	9,6671758E-003	2,2621911E+000
2	1	0	0	10/01/2024 18:59:43.0756	8,2954329E-001	8,2889199E-001	1,323971026433031E+001	1,9579859E-001	10	-1,4828620E+000	1,0974290E-002	2,3117540E+000
2	1	0	1	10/01/2024 18:59:45.6754	8,4254223E-001	8,4188384E-001	1,466919280463608E+001	2,3197624E-001	10	-1,4876915E+000	1,2349756E-002	2,3295753E+000
2	1	0	0	10/01/2024 18:59:48.2752	8,5554105E-001	8,5490328E-001	1,620925711287937E+001	2,7205706E-001	10	-1,4911977E+000	1,3857347E-002	2,3461010E+000
2	1	0	1	10/01/2024 18:59:50.8750	8,6854005E-001	8,6790150E-001	1,763287144926396E+001	3,1595758E-001	10	-1,4923310E+000	1,5303596E-002	2,3602326E+000
2	1	0	0	10/01/2024 18:59:53.4748	8,8153905E-001	8,8092828E-001	1,904166049049013E+001	3,6380148E-001	10	-1,4944457E+000	1,6774338E-002	2,3753738E+000
2	1	0	1	10/01/2024 18:59:56.0746	8,9453793E-001	8,9392018E-001	2,036081057800459E+001	4,1503465E-001	10	-1,4963675E+000	1,8200940E-002	2,3902876E+000
2	1	0	0	10/01/2024 18:59:57.1568	8,9998782E-001	8,9934760E-001	2,125947362726384E+001	4,3769458E-001	10	-1,4985048E+000	1,9119658E-002	2,3978524E+000