Folder: nife-mo-alkaline-oer-data/fig_5_ni90fe10_ceo2_tio2_zro2/Activity_2

Note: README.md
# Raw Data and Plot Scripts for the Manuscript

This repository contains the raw data and plotting scripts for the figures in the following manuscript:

**Varghese, N. K., Mkrtchian, E., Singh, A., Savio, L., Boccia, M., Marzocchi, V., & Comite, A., NiFe on CeO2, TiO2 and ZrO2 Supports as Efficient Oxygen Evolution Reaction Catalysts in Alkaline Media. ACS Appl. Energy Mater. 2025; doi:10.1021/acsaem.4c03268**

Each folder corresponds to a specific figure in the paper, with the folder name matching the figure number/details. Inside each folder, you will find the raw data files and the Python scripts used to generate the plots for that figure.

The **XPS plots** were generated using a commercial software. The folder `fig_3_and_si_xps` contains only the raw XPS data.

If you use this data, please cite the above article.

## License

This project is licensed under the **GNU General Public License (GPL)**, which allows you to freely use, modify and distribute the code, provided that any derivative works are also licensed under GPL.

File: TiO2_activity_2.txt
Ewe/V	<I>/mA
5,0404209E-001	0,000000000000000E+000
6,5222800E-002	-5,863989667371428E-001
6,9435306E-002	-3,028875032034350E-001
7,3485516E-002	-2,193485967278517E-001
7,7449799E-002	-1,752063431534197E-001
8,1463926E-002	-1,468830262532538E-001
8,5471697E-002	-1,269400300755843E-001
8,9488283E-002	-1,120802868692532E-001
9,3492545E-002	-1,005131992576916E-001
9,7439855E-002	-9,136592096262675E-002
1,0145292E-001	-8,370364262129004E-002
1,0545433E-001	-7,730660004416701E-002
1,0945468E-001	-7,174295904653366E-002
1,1345715E-001	-6,689190346475216E-002
1,1742990E-001	-6,270633525449498E-002
1,2141965E-001	-5,885833385558825E-002
1,2541045E-001	-5,538640583943472E-002
1,2946276E-001	-5,227370032842149E-002
1,3347903E-001	-4,942048522073539E-002
1,3741679E-001	-4,683779389016707E-002
1,4164521E-001	-4,452277142240924E-002
1,4561373E-001	-4,236423876057338E-002
1,4963530E-001	-4,028505576291930E-002
1,5365368E-001	-3,831664748149832E-002
1,5765613E-001	-3,646999316120020E-002
1,6163421E-001	-3,477262983192597E-002
1,6559744E-001	-3,312580308997293E-002
1,6964127E-001	-3,161376656393161E-002
1,7362462E-001	-3,016411667861785E-002
1,7763558E-001	-2,877847905072256E-002
1,8164760E-001	-2,746909507312714E-002
1,8564053E-001	-2,624201730829215E-002
1,8961647E-001	-2,504285179657229E-002
1,9364229E-001	-2,396249343113671E-002
1,9766480E-001	-2,283097519455879E-002
2,0163235E-001	-2,183812430873933E-002
2,0562102E-001	-2,084661063911333E-002
2,0963199E-001	-1,990632135133293E-002
2,1362278E-001	-1,900759859426604E-002
2,1765493E-001	-1,816270328728721E-002
2,2163834E-001	-1,734182583746263E-002
2,2560048E-001	-1,654536607189536E-002
2,2966234E-001	-1,577997165140768E-002
2,3365530E-001	-1,503876828648731E-002
2,3767576E-001	-1,429568501302860E-002
2,4164854E-001	-1,363723407538556E-002
2,4563296E-001	-1,298060173658727E-002
2,4964075E-001	-1,235029639772829E-002
2,5360823E-001	-1,175897649169660E-002
2,5762975E-001	-1,117257742442732E-002
2,6165980E-001	-1,060252097412065E-002
2,6560584E-001	-1,008086943279968E-002
2,6966581E-001	-9,532563237218905E-003
2,7363008E-001	-9,034857335181001E-003
2,7759647E-001	-8,541345414430995E-003
2,8158835E-001	-8,092220619615453E-003
2,8566402E-001	-7,645133792413709E-003
2,8963464E-001	-7,201560923754152E-003
2,9360211E-001	-6,797280411715290E-003
2,9761094E-001	-6,395974932668774E-003
3,0163887E-001	-6,005106486076226E-003
3,0566576E-001	-5,640145887805804E-003
3,0960774E-001	-5,270440000953586E-003
3,1363568E-001	-4,927391670496436E-003
3,1761375E-001	-4,576175053142770E-003
3,2160136E-001	-4,274720005692914E-003
3,2560489E-001	-3,955307009098259E-003
3,2960945E-001	-3,647013503438830E-003
3,3362153E-001	-3,353526546269931E-003
3,3762610E-001	-3,073483828370499E-003
3,4164870E-001	-2,796714579579744E-003
3,4562150E-001	-2,525700738256517E-003
3,4963030E-001	-2,303040116394978E-003
3,5360730E-001	-2,045017185713618E-003
3,5764688E-001	-1,823611695776368E-003
3,6163130E-001	-1,566108673430955E-003
3,6559880E-001	-1,357375822911566E-003
3,6958006E-001	-1,118966864440837E-003
3,7359843E-001	-9,485558606139796E-004
3,7762639E-001	-7,293116946351583E-004
3,8159594E-001	-5,440836153969911E-004
3,8563025E-001	-3,470778882205252E-004
3,8959450E-001	-1,254227573993503E-004
3,9361498E-001	4,348814015112183E-005
3,9764506E-001	2,326091202543090E-004
4,0160948E-001	4,314929306047932E-004
4,0561289E-001	6,164229690087186E-004
4,0958455E-001	8,290160872268409E-004
4,1370371E-001	1,009481395521190E-003
4,1770932E-001	1,173942819678360E-003
4,2169595E-001	1,332794926320009E-003
4,2567933E-001	1,551112888961047E-003
4,2964569E-001	1,706413544149930E-003
4,3364817E-001	1,877316674404994E-003
4,3769306E-001	2,050052426287918E-003
4,4168809E-001	2,227257281218316E-003
4,4568524E-001	2,385226516786290E-003
4,4970149E-001	2,563994833481527E-003
4,5369124E-001	2,730024134589878E-003
4,5767251E-001	2,936396388500823E-003
4,6165055E-001	3,148058291397686E-003
4,6569118E-001	3,483560310477141E-003
4,6963850E-001	3,956442803602800E-003
4,7362509E-001	4,646910763070590E-003
4,7768164E-001	5,560350299854022E-003
4,8167670E-001	6,500757478474270E-003
4,8565897E-001	7,686454717683873E-003
4,8967212E-001	9,345859120089908E-003
4,9368727E-001	1,149112711611198E-002
4,9762189E-001	1,417630984880300E-002
5,0171876E-001	1,709922568428027E-002
5,0564373E-001	1,984211929021562E-002
5,0971377E-001	2,230174578218602E-002
5,1363599E-001	2,486110776990152E-002
5,1766604E-001	2,841332849498446E-002
5,2165365E-001	3,319151232904960E-002
5,2563280E-001	3,976119627047309E-002
5,2965331E-001	4,759600223570026E-002
5,3361750E-001	5,655590240693686E-002
5,3767866E-001	6,870545980311626E-002
5,4167867E-001	8,938620476075387E-002
5,4575855E-001	1,237702394567446E-001
5,4980779E-001	1,650316995767086E-001
5,5380917E-001	2,053147593635614E-001
5,5776066E-001	2,397882113963909E-001
5,6175357E-001	2,673567896286495E-001
5,6574863E-001	2,888218856684848E-001
5,6975538E-001	3,058938281969619E-001
5,7377481E-001	3,199725101497060E-001
5,7773423E-001	3,313896917084003E-001
5,8174795E-001	3,404539237284601E-001
5,8573341E-001	3,475573053097776E-001
5,8976668E-001	3,538314009976506E-001
5,9380943E-001	3,594294041374075E-001
5,9773344E-001	3,657941384169199E-001
6,0174751E-001	3,744683278716099E-001
6,0575575E-001	3,859703371881960E-001
6,0976207E-001	4,008141993175407E-001
6,1378783E-001	4,200248616048547E-001
6,1776376E-001	4,440718491027411E-001
6,2172067E-001	4,728560747405571E-001
6,2573159E-001	5,072985890906417E-001
6,2972242E-001	5,479904578876198E-001
6,3375348E-001	5,952721675203208E-001
6,3774002E-001	6,503475758409687E-001
6,4178813E-001	7,141140504885879E-001
6,4575130E-001	7,877116133902291E-001
6,4971989E-001	8,710773376042589E-001
6,5372229E-001	9,674437839005634E-001
6,5781277E-001	1,078999402153555E+000
6,6183227E-001	1,207501259968190E+000
6,6584110E-001	1,347903120950236E+000
6,6986483E-001	1,507330388768393E+000
6,7383754E-001	1,683129543349859E+000
6,7787820E-001	1,880830553535578E+000
6,8189240E-001	2,093768282981408E+000
6,8586850E-001	2,331555526570099E+000
6,8982202E-001	2,587737058718060E+000
6,9386899E-001	2,863272500720697E+000
6,9789690E-001	3,159421376326463E+000
7,0185483E-001	3,474344649992034E+000
7,0582229E-001	3,796992018379612E+000
7,0988423E-001	4,148508160089953E+000
7,1381801E-001	4,513404841709642E+000
7,1784037E-001	4,890333318994166E+000
7,2184390E-001	5,280129078159007E+000
7,2584945E-001	5,679146038870968E+000
7,2984552E-001	6,104458588422546E+000
7,3381406E-001	6,528309701994701E+000
7,3781657E-001	6,978663488918436E+000
7,4186778E-001	7,423067836602044E+000
7,4587035E-001	7,883187470590173E+000
7,4987066E-001	8,365356387532522E+000
7,5387001E-001	8,828467596753356E+000
7,5785857E-001	9,327576598950799E+000
7,6180804E-001	9,808427815940087E+000
7,6582956E-001	1,029790409257353E+001
7,6994729E-001	1,074997555045115E+001
7,7401912E-001	1,137725636903663E+001
7,7805662E-001	1,189420607794171E+001
7,8200382E-001	1,239613825995094E+001
7,8604138E-001	1,290683876697705E+001
7,9001945E-001	1,345241094879012E+001
7,9402077E-001	1,400775574164604E+001
7,9805827E-001	1,451071915429195E+001
8,0204493E-001	1,507142275652919E+001
8,0601227E-001	1,563352344757840E+001
8,1007314E-001	1,607304362631704E+001
8,1401300E-001	1,664866437622756E+001
8,1802285E-001	1,720232825646860E+001
8,2210279E-001	1,781095671586164E+001
8,2605642E-001	1,829548673997391E+001
8,3004844E-001	1,889851561479290E+001
8,3406031E-001	1,946341085731316E+001
8,3807230E-001	2,001204076848603E+001
8,4206206E-001	2,053112283531499E+001
8,4610170E-001	2,108957834159969E+001
8,5006386E-001	2,162760963459968E+001
8,5408640E-001	2,223272296211877E+001
8,5806990E-001	2,280358499721058E+001
8,6211896E-001	2,327386415085817E+001
8,6604929E-001	2,383308293827548E+001
8,7005919E-001	2,434472936499964E+001
8,7408185E-001	2,498995998643690E+001
8,7806410E-001	2,558296107245690E+001
8,8205808E-001	2,607883008429258E+001
8,8606489E-001	2,670742997236530E+001
8,9004081E-001	2,724976057854911E+001
8,9406341E-001	2,776670928093318E+001
8,9809352E-001	2,821638234104967E+001
8,9930308E-001	2,891322766817535E+001

File: ZrO2_ACTIVITY_2.txt
Ewe/V	<I>/mA
4,634173810482025E-001	0,000000000000000E+000
6,505770236253738E-002	-9,589876441597567E-002
6,910727918148041E-002	-4,310697501425154E-002
7,316660135984421E-002	-2,975148790702858E-002
7,715845853090286E-002	-2,319146891807200E-002
8,122033625841141E-002	-1,929614173465935E-002
8,514642715454102E-002	-1,670139464560277E-002
8,914888650178909E-002	-1,485558235904315E-002
9,320120513439178E-002	-1,346185973509111E-002
9,712836891412735E-002	-1,234543991492650E-002
1,011881157755852E-001	-1,139546966486688E-002
1,051439121365547E-001	-1,060842539135221E-002
1,091601550579071E-001	-9,876617352367861E-003
1,131575480103493E-001	-9,261727151824467E-003
1,171491816639900E-001	-8,712180169674649E-003
1,211856007575989E-001	-8,218502571905050E-003
1,251546591520309E-001	-7,770939495078066E-003
1,292106956243515E-001	-7,330643293268851E-003
1,331484466791153E-001	-6,957819054294920E-003
1,371371150016785E-001	-6,603525208334113E-003
1,411533802747726E-001	-6,261388049645711E-003
1,451781243085861E-001	-5,955801158311902E-003
1,491880267858505E-001	-5,658322216156503E-003
1,531353145837784E-001	-5,373362566425212E-003
1,571515947580338E-001	-5,101369252566211E-003
1,611126661300659E-001	-5,771969142891284E-003
1,651098281145096E-001	-5,532843630560058E-003
1,691186875104904E-001	-5,318568701208573E-003
1,731625050306320E-001	-5,058538557148759E-003
1,771289259195328E-001	-4,844920632844918E-003
1,811398565769196E-001	-4,666172069681680E-003
1,851603537797928E-001	-4,453271135366817E-003
1,891492009162903E-001	-4,323600203261557E-003
1,931599825620651E-001	-4,103887219973471E-003
1,971423029899597E-001	-3,943199213687125E-003
2,011362910270691E-001	-3,774090915418889E-003
2,051567882299423E-001	-3,633615567429135E-003
2,091740965843201E-001	-3,498642852483934E-003
2,131723314523697E-001	-3,356112263723982E-003
2,171588838100433E-001	-3,197000829224175E-003
2,211496680974960E-001	-3,088540165380748E-003
2,251468449831009E-001	-2,950616182876616E-003
2,291090041399002E-001	-2,859311130133706E-003
2,331369519233704E-001	-2,716772615364592E-003
2,371712327003479E-001	-2,598369218006637E-003
2,411832213401794E-001	-2,504358043954364E-003
2,451676875352860E-001	-2,366570365956916E-003
2,491818219423294E-001	-2,287250683923275E-003
2,531496286392212E-001	-2,172456551533506E-003
2,571665644645691E-001	-2,047846625034246E-003
2,611605823040009E-001	-1,967594018246910E-003
2,651224136352539E-001	-1,876515377359497E-003
2,691655158996582E-001	-1,768044766802812E-003
2,731308341026306E-001	-1,658989798042534E-003
2,771227061748505E-001	-1,612100665537249E-003
2,811442315578461E-001	-1,491771880532003E-003
2,851774990558624E-001	-1,386071744703770E-003
2,891597747802734E-001	-1,312752601268154E-003
2,931612133979797E-001	-1,257092083589519E-003
2,971456348896027E-001	-1,145249685028291E-003
3,011470735073090E-001	-1,071498863126602E-003
3,051643669605255E-001	-9,933771879354902E-004
3,091169595718384E-001	-9,116385826670494E-004
3,130589723587036E-001	-8,311091394040196E-004
3,171272277832031E-001	-7,574700894327916E-004
3,211456239223480E-001	-6,402434615189268E-004
3,251650333404541E-001	-5,815629288573054E-004
3,290955424308777E-001	-4,971672941193623E-004
3,331084251403809E-001	-4,272881804306815E-004
3,371406197547913E-001	-3,046383777801150E-004
3,411123454570770E-001	-2,481154305956088E-004
3,451412916183472E-001	-1,327636001919590E-004
3,491331338882446E-001	-3,192914985395096E-005
3,531005978584290E-001	5,015575985737404E-005
3,570797145366669E-001	1,201286034164366E-004
3,610959947109222E-001	2,390170627059691E-004
3,651112318038940E-001	3,672248374181081E-004
3,690892755985260E-001	4,461783285915517E-004
3,731405735015869E-001	5,519671980062819E-004
3,771133422851563E-001	6,919735126328617E-004
3,810850381851196E-001	7,722524026487470E-004
3,851150572299957E-001	9,165081182449727E-004
3,891344666481018E-001	1,027797377026721E-003
3,931114673614502E-001	1,155807023088956E-003
3,971288204193115E-001	1,267333516324827E-003
4,011079668998718E-001	1,411586491095865E-003
4,051059782505035E-001	1,527210540997470E-003
4,091361761093140E-001	1,656256084657186E-003
4,131758511066437E-001	1,797074693205103E-003
4,171963036060333E-001	1,948695550525539E-003
4,211733341217041E-001	2,084151363499731E-003
4,252043962478638E-001	2,247542439499428E-003
4,291676580905914E-001	2,386784946706716E-003
4,331828355789185E-001	2,551569560453746E-003
4,371768236160278E-001	2,695030556156072E-003
4,411634206771851E-001	2,857577275703766E-003
4,452210068702698E-001	3,017464207999155E-003
4,492171108722687E-001	3,184935990076873E-003
4,531856179237366E-001	3,365075148613290E-003
4,571838676929474E-001	3,594440139550029E-003
4,612118005752563E-001	3,824149695025224E-003
4,651686549186707E-001	4,179645466092660E-003
4,692072868347168E-001	4,634448007958814E-003
4,731555581092834E-001	5,360205144008486E-003
4,772152900695801E-001	6,306808273193965E-003
4,812103211879730E-001	7,469495723040901E-003
4,852436184883118E-001	8,772299854840349E-003
4,893956184387207E-001	1,035521721217648E-002
4,933705031871796E-001	1,176429025678641E-002
4,973846375942230E-001	1,365588624212496E-002
5,013796687126160E-001	1,605514284617179E-002
5,053630471229553E-001	1,896477334321192E-002
5,093581080436707E-001	2,236263291467328E-002
5,133488774299622E-001	2,640244745081323E-002
5,173650979995728E-001	3,140399477137312E-002
5,213803648948669E-001	3,737351220748397E-002
5,253541469573975E-001	4,417648351072301E-002
5,293555259704590E-001	5,025736068358488E-002
5,333368182182312E-001	5,377820631607444E-002
5,373583436012268E-001	5,389671452193540E-002
5,414118170738220E-001	5,156035951809657E-002
5,453949570655823E-001	4,862453136111899E-002
5,493806600570679E-001	4,638012836511982E-002
5,533925890922546E-001	4,511180479695082E-002
5,573431253433228E-001	4,456412865381149E-002
5,613795518875122E-001	4,476636090255692E-002
5,653861761093140E-001	4,543023525400375E-002
5,693791508674622E-001	4,645036096693084E-002
5,733901262283325E-001	4,781896425880960E-002
5,773660540580750E-001	4,947912732779128E-002
5,813664197921753E-001	5,152381024515573E-002
5,853306651115417E-001	5,399319645790324E-002
5,893533229827881E-001	5,692361979776994E-002
5,933748483657837E-001	6,050403204708532E-002
5,973539948463440E-001	6,480188068222092E-002
6,013681888580322E-001	7,007197918562524E-002
6,053314208984375E-001	7,636447847016159E-002
6,093863844871521E-001	8,399985764253798E-002
6,133585572242737E-001	9,328210717616203E-002
6,174095869064331E-001	1,047542070970935E-001
6,214342713356018E-001	1,186303174578864E-001
6,254763007164001E-001	1,352002439395341E-001
6,294459104537964E-001	1,552306567054758E-001
6,334494352340698E-001	1,794635759478607E-001
6,374062299728394E-001	2,084232856099258E-001
6,414787769317627E-001	2,434520221140053E-001
6,454896926879883E-001	2,853794788113904E-001
6,494805216789246E-001	3,350374078749763E-001
6,534925103187561E-001	3,943680583324123E-001
6,575215458869934E-001	4,643391823045500E-001
6,614708900451660E-001	5,462880857466237E-001
6,654829382896423E-001	6,421500445468201E-001
6,694493293762207E-001	7,528035006150100E-001
6,734613776206970E-001	8,793970331907253E-001
6,774712204933167E-001	1,024063107031745E+000
6,815533041954041E-001	1,192793687209996E+000
6,855400204658508E-001	1,374744284500769E+000
6,895381212234497E-001	1,575985759952843E+000
6,936084628105164E-001	1,797935298443377E+000
6,975803375244141E-001	2,037906642472580E+000
7,015921473503113E-001	2,296031296692469E+000
7,055553197860718E-001	2,572974993714261E+000
7,095832824707031E-001	2,867606538426024E+000
7,135761976242065E-001	3,177510877754408E+000
7,175362706184387E-001	3,503903956268644E+000
7,215832471847534E-001	3,845786933388005E+000
7,255390286445618E-001	4,200405253743654E+000
7,295893430709839E-001	4,569498878589002E+000
7,335588335990906E-001	4,950656374194178E+000
7,375867962837219E-001	5,341009967113564E+000
7,415584325790405E-001	5,744470924037628E+000
7,455662488937378E-001	6,156701089573560E+000
7,495569586753845E-001	6,575311561551992E+000
7,535637021064758E-001	6,998460409187153E+000
7,575662732124329E-001	7,431268479210445E+000
7,615528106689453E-001	7,873564251753891E+000
7,655923366546631E-001	8,321345083094513E+000
7,695471048355103E-001	8,774483733098783E+000
7,735719084739685E-001	9,246287046578999E+000
7,775436043739319E-001	9,728275255821721E+000
7,815300822257996E-001	1,019355481011529E+001
7,855591177940369E-001	1,066800475532774E+001
7,896506190299988E-001	1,118970554242600E+001
7,936266064643860E-001	1,167768499829607E+001
7,976651191711426E-001	1,216318659643196E+001
8,016505837440491E-001	1,265748132451050E+001
8,056721687316895E-001	1,313385985065206E+001
8,096746206283569E-001	1,366699754232184E+001
8,136557936668396E-001	1,425284532165304E+001
8,176382184028625E-001	1,472651544720145E+001
8,217085599899292E-001	1,521345002716092E+001
8,256609439849854E-001	1,596840902930884E+001
8,297240734100342E-001	1,646603738572318E+001
8,337106108665466E-001	1,699126951021407E+001
8,377110362052917E-001	1,750652345021567E+001
8,417092561721802E-001	1,803816170257238E+001
8,456883430480957E-001	1,863243689531642E+001
8,496918678283691E-001	1,912549804438270E+001
8,536933064460754E-001	1,958740038544682E+001
8,577329516410828E-001	2,014284285477231E+001
8,616992831230164E-001	2,060413041001277E+001
8,656986355781555E-001	2,117598355465198E+001
8,697222471237183E-001	2,195830130942011E+001
8,736908435821533E-001	2,241806131898682E+001
8,776636123657227E-001	2,290461812092326E+001
8,816713094711304E-001	2,343866316112528E+001
8,857205510139465E-001	2,428898553850968E+001
8,897011280059814E-001	2,482025063253604E+001
8,937190175056458E-001	2,523911177787659E+001
8,977214694023132E-001	2,585120636265299E+001
8,994074463844299E-001	2,599796570671930E+001