Folder: nife-mo-alkaline-oer-data/fig_5_ni90fe10_ceo2_tio2_zro2/EIS_1 (part 2)

File: ZrO2_EIS_1.mpt
EC-Lab ASCII FILE
Nb header lines : 66

Potentio Electrochemical Impedance Spectroscopy

Run on channel : 1 (SN 10336)
User :
CE vs. WE compliance from -10 V to 10 V
Electrode connection : standard
Potential control : Ewe
Ewe ctrl range : min = -10,00 V, max = 10,00 V
Safety Limits :
	Do not start on E overload
Acquisition started on : 10/01/2024 19:01:56.866
Technique started on : 10/01/2024 19:06:58.033
Loaded Setting File :  C:\EC-lab data\Neethu\2024_10_01_Ni90Fe10_TiO2\OCP+EIS_1.mps
Saved on :
	File : OCP+EIS_1_02_PEIS_C01.mpr
	Directory : C:\EC-lab data\Neethu\2024_10_01_Ni90Fe10_ZrO2\
	Host : 10.54.33.65
Device : VMP3 (SN 0498)
Address : USB
EC-Lab for windows v11.52 (software)
Internet server v11.52 (firmware)
Command interpretor v11.50 (firmware)
Electrode material :
Initial state :
Electrolyte :
Comments :
Electrode surface area : 0,001 cm²
Characteristic mass : 0,001 g
Volume (V) : 0,001 cm³
Thickness (t) : 0,000 cm
Diameter (d) : 0,000 cm
Cell constant (k=t/A) : 0,000 cm-1
Record Ece
Cycle Definition : Charge/Discharge alternance
Mode                Single sine
E (V)               0,7000
vs.                 Ref
tE (h:m:s)          0:00:0,0000
record              0
dI                  0,000
unit dI             mA
dt (s)              0,000
fi                  200,000
unit fi             kHz
ff                  0,100
unit ff             Hz
Nd                  10
Points              per decade
spacing             Logarithmic
Va (mV)             10,0
pw                  0,10
Na                  2
corr                0
E range min (V)     -10,000
E range max (V)     10,000
I Range             Auto
Bandwidth           5
nc cycles           0
goto Ns'            0
nr cycles           0
inc. cycle          0

freq/Hz	Re(Z)/Ohm	-Im(Z)/Ohm	|Z|/Ohm	Phase(Z)/deg	time/s	<Ewe>/V	<I>/mA	Cs/µF	Cp/µF	cycle number	I Range	|Ewe|/V	|I|/A	Ns	(Q-Qo)/mA.h	<Ece>/V	|Ece|/V	Phase(Zce)/deg	|Zce|/Ohm	Re(Zce)/Ohm	-Im(Zce)/Ohm	Phase(Zwe-ce)/deg	|Zwe-ce|/Ohm	Re(Zwe-ce)/Ohm	-Im(Zwe-ce)/Ohm	Re(Y)/Ohm-1	Im(Y)/Ohm-1	|Y|/Ohm-1	Phase(Y)/deg	Re(C)/nF	Im(C)/nF	|C|/nF	Phase(C)/deg	Re(M)	Im(M)	|M|	Phase(M)/deg	Re(Permittivity)	Im(Permittivity)	|Permittivity|	Phase(Permittivity)/deg	Re(Resistivity)/Ohm.cm	Im(Resistivity)/Ohm.cm	|Resistivity|/Ohm.cm	Phase(Resistivity)/deg	Re(Conductivity)/mS/cm	Im(Conductivity)/mS/cm	|Conductivity|/mS/cm	Phase(Conductivity)/deg	Tan(Delta)	Loss Angle(Delta)/deg	dq/mA.h
1,9999814E+005	5,8924499E+000	-7,6283330E-001	5,9416227E+000	7,3764534E+000	10/01/2024 19:06:58.0329	6,9907814E-001	1,9197551E+000	-1,0431926E+000	-1,7195456E-002	1,000000000000000E+000	10	9,4849039E-003	1,5963491E-003	0	4,704307599941644E-004	-1,4306761E-001	6,3405733E-004	-1,1264807E+002	3,9719215E-001	-1,5294668E-001	3,6656365E-001	3,9495759E+000	5,7531667E+000	5,7395034E+000	-3,9626965E-001	1,6691130E-001	-2,1608246E-002	1,6830419E-001	-7,3764534E+000	-1,7195448E+001	1,3282504E+002	1,3393347E+002	-9,7376450E+001	0,0000000E+000	0,0000000E+000	0,0000000E+000	9,7376450E+001	0,0000000E+000	0,0000000E+000	0,0000000E+000	-9,7376450E+001	0,0000000E+000	0,0000000E+000	0,0000000E+000	7,3764534E+000	0,0000000E+000	0,0000000E+000	0,0000000E+000	-7,3764534E+000	7,7244267E+000	8,2623550E+001	4,704307599941644E-004
5,0224539E+004	5,1634436E+000	7,1145475E-002	5,1639338E+000	-7,8941065E-001	10/01/2024 19:07:00.3129	6,9910747E-001	1,7899491E+000	4,4540684E+001	8,4545426E-003	1,000000000000000E+000	10	1,0320290E-002	1,9985326E-003	0	1,611354051946863E-003	-2,2308165E-001	1,2030064E-003	7,9323716E+000	6,0194486E-001	5,9618527E-001	-8,3070889E-002	1,1863177E-001	5,7596412E+000	5,7596288E+000	-1,1925414E-002	1,9363244E-001	2,6680008E-003	1,9365081E-001	7,8941065E-001	8,4545727E+000	6,1359570E+002	6,1365393E+002	-8,9210587E+001	0,0000000E+000	0,0000000E+000	0,0000000E+000	8,9210587E+001	0,0000000E+000	0,0000000E+000	0,0000000E+000	-8,9210587E+001	0,0000000E+000	0,0000000E+000	0,0000000E+000	-7,8941065E-001	0,0000000E+000	0,0000000E+000	0,0000000E+000	7,8941065E-001	7,2575851E+001	8,9210587E+001	1,843665756972881E-004
1,2609485E+004	5,2274170E+000	2,4570100E-001	5,2331882E+000	-2,6910570E+000	10/01/2024 19:07:02.4699	6,9910300E-001	1,7199526E+000	5,1370743E+001	1,1323925E-001	1,000000000000000E+000	10	1,0894097E-002	2,0817325E-003	0	2,640678248748196E-003	-2,8341198E-001	1,2473484E-003	3,0097501E+000	5,9918761E-001	5,9836107E-001	-3,1460881E-002	-2,1060750E+000	5,8297157E+000	5,8257780E+000	2,1424012E-001	1,9087738E-001	8,9716893E-003	1,9108811E-001	2,6910570E+000	1,1323918E+002	2,4092244E+003	2,4118840E+003	-8,7308945E+001	0,0000000E+000	0,0000000E+000	0,0000000E+000	8,7308945E+001	0,0000000E+000	0,0000000E+000	0,0000000E+000	-8,7308945E+001	0,0000000E+000	0,0000000E+000	0,0000000E+000	-2,6910570E+000	0,0000000E+000	0,0000000E+000	0,0000000E+000	2,6910570E+000	2,1275522E+001	8,7308945E+001	1,201973084736384E-004
3,1680613E+003	5,4052110E+000	7,1472251E-001	5,4522595E+000	-7,5324335E+000	10/01/2024 19:07:04.4178	6,9915289E-001	1,6802077E+000	7,0289284E+001	1,2078444E+000	1,000000000000000E+000	10	1,0201139E-002	1,8709931E-003	0	3,539818724668378E-003	-3,3557096E-001	1,1651700E-003	-6,6155845E-001	6,2275487E-001	6,2271339E-001	7,1904003E-003	-6,8292985E+000	6,0709991E+000	6,0279245E+000	7,2191292E-001	1,8182752E-001	2,4042767E-002	1,8341020E-001	7,5324335E+000	1,2078442E+003	9,1345293E+003	9,2140391E+003	-8,2467567E+001	0,0000000E+000	0,0000000E+000	0,0000000E+000	8,2467567E+001	0,0000000E+000	0,0000000E+000	0,0000000E+000	-8,2467567E+001	0,0000000E+000	0,0000000E+000	0,0000000E+000	-7,5324335E+000	0,0000000E+000	0,0000000E+000	0,0000000E+000	7,5324335E+000	7,5626707E+000	8,2467567E+001	1,712280091837716E-004
7,9525409E+002	6,0438304E+000	2,2303941E+000	6,4422469E+000	-2,0255903E+001	10/01/2024 19:07:07.1162	6,9914204E-001	1,6317312E+000	8,9728951E+001	1,0755264E+001	1,000000000000000E+000	10	1,0242368E-002	1,5898751E-003	0	4,756165329380317E-003	-4,0472174E-001	9,8507083E-004	-2,6069160E+000	6,1959010E-001	6,1894888E-001	2,8181169E-002	-1,8725834E+001	7,0351825E+000	6,6627793E+000	2,2585752E+000	1,4562555E-001	5,3741146E-002	1,5522535E-001	2,0255903E+001	1,0755266E+004	2,9144174E+004	3,1065393E+004	-6,9744095E+001	0,0000000E+000	0,0000000E+000	0,0000000E+000	6,9744095E+001	0,0000000E+000	0,0000000E+000	0,0000000E+000	-6,9744095E+001	0,0000000E+000	0,0000000E+000	0,0000000E+000	-2,0255903E+001	0,0000000E+000	0,0000000E+000	0,0000000E+000	2,0255903E+001	2,7097590E+000	6,9744095E+001	2,004305094812434E-004
1,9980818E+002	9,1346331E+000	6,1245680E+000	1,0997811E+001	-3,3840973E+001	10/01/2024 19:07:09.8074	6,9915700E-001	1,5968895E+000	1,3005630E+002	4,0333858E+001	1,000000000000000E+000	10	1,0166034E-002	9,2436885E-004	0	5,937374112772794E-003	-4,6783945E-001	6,0403120E-004	-1,0239225E+001	6,5345258E-001	6,4304578E-001	1,1615674E-001	-3,2548561E+001	1,1599553E+001	9,7776785E+000	6,2407246E+000	7,5522885E-002	5,0636414E-002	9,0927184E-002	3,3840973E+001	4,0333863E+004	6,0156902E+004	7,2427023E+004	-5,6159027E+001	0,0000000E+000	0,0000000E+000	0,0000000E+000	5,6159027E+001	0,0000000E+000	0,0000000E+000	0,0000000E+000	-5,6159027E+001	0,0000000E+000	0,0000000E+000	0,0000000E+000	-3,3840973E+001	0,0000000E+000	0,0000000E+000	0,0000000E+000	3,3840973E+001	1,4914739E+000	5,6159027E+001	1,967870479367495E-004
[...]
3,1655185E+000	2,4635946E+001	8,6443704E-001	2,4651108E+001	-2,0095954E+000	10/01/2024 19:07:18.5644	6,9915754E-001	1,4794023E+000	5,8162344E+004	7,1521362E+001	1,000000000000000E+000	11	1,0140356E-002	4,1135497E-004	0	9,589707348793913E-003	-6,3405329E-001	5,2686728E-004	1,1073422E+002	1,2808093E+000	-4,5344943E-001	-1,1978548E+000	7,8991914E-001	2,4184795E+001	2,4182497E+001	-3,3341771E-001	4,0541179E-002	1,4225269E-003	4,0566128E-002	2,0095954E+000	7,1521445E+004	2,0383166E+006	2,0395710E+006	-8,7990402E+001	0,0000000E+000	0,0000000E+000	0,0000000E+000	8,7990402E+001	0,0000000E+000	0,0000000E+000	0,0000000E+000	-8,7990402E+001	0,0000000E+000	0,0000000E+000	0,0000000E+000	-2,0095954E+000	0,0000000E+000	0,0000000E+000	0,0000000E+000	2,0095954E+000	2,8499411E+001	8,7990402E+001	2,859253102567745E-004
7,9443753E-001	2,5850103E+001	2,0710768E-001	2,5850933E+001	-4,5903653E-001	10/01/2024 19:07:28.3607	6,9917434E-001	1,4024279E+000	9,6730669E+005	6,2087494E+001	1,000000000000000E+000	11	1,0144958E-002	3,9244071E-004	0	1,346352368192150E-002	-7,3661488E-001	1,7511090E-003	-1,4669885E+002	4,4620981E+000	-3,7294056E+000	2,4498680E+000	-6,8491368E+000	2,2279694E+001	2,2120697E+001	2,6569757E+000	3,8682085E-002	3,0991583E-004	3,8683325E-002	4,5903653E-001	6,2087660E+004	7,7494380E+006	7,7496865E+006	-8,9540962E+001	0,0000000E+000	0,0000000E+000	0,0000000E+000	8,9540962E+001	0,0000000E+000	0,0000000E+000	0,0000000E+000	-8,9540962E+001	0,0000000E+000	0,0000000E+000	0,0000000E+000	-4,5903653E-001	0,0000000E+000	0,0000000E+000	0,0000000E+000	4,5903653E-001	1,2481480E+002	8,9540962E+001	1,046534925258202E-003
1,9933917E-001	2,8909281E+001	4,8496327E-001	2,8913349E+001	-9,6106654E-001	10/01/2024 19:08:06.8928	6,9917476E-001	1,2459362E+000	1,6463368E+006	4,6316907E+002	1,000000000000000E+000	11	1,0150001E-002	3,5104898E-004	0	2,735222941862471E-002	-8,7535548E-001	1,2371457E-002	-8,3652420E+001	3,5241398E+001	3,8962774E+000	3,5025349E+001	-4,7267265E+001	4,8344460E+001	3,2805557E+001	3,5510311E+001	3,4581237E-002	5,8011228E-004	3,4586102E-002	9,6106654E-001	4,6316938E+005	2,7610100E+007	2,7613984E+007	-8,9038933E+001	0,0000000E+000	0,0000000E+000	0,0000000E+000	8,9038933E+001	0,0000000E+000	0,0000000E+000	0,0000000E+000	-8,9038933E+001	0,0000000E+000	0,0000000E+000	0,0000000E+000	-9,6106654E-001	0,0000000E+000	0,0000000E+000	0,0000000E+000	9,6106654E-001	5,9611279E+001	8,9038933E+001	3,626639158350313E-003
9,9904090E-002	2,9744276E+001	-6,6313550E-002	2,9744350E+001	1,2773819E-001	10/01/2024 19:08:57.9944	6,9917738E-001	1,1854706E+000	-2,4023406E+007	-1,1940710E+002	1,000000000000000E+000	11	1,0149127E-002	3,4121191E-004	0	4,451756198903204E-002	-9,5890152E-001	1,1851254E-002	-7,4468239E+001	3,4732826E+001	9,3004951E+000	3,3464458E+001	-4,0543041E+001	5,1380249E+001	3,9044769E+001	3,3398144E+001	3,3619747E-002	-7,4953736E-005	3,3619829E-002	-1,2773819E-001	-1,1940781E+005	5,3558860E+007	5,3558992E+007	-9,0127739E+001	0,0000000E+000	0,0000000E+000	0,0000000E+000	9,0127739E+001	0,0000000E+000	0,0000000E+000	0,0000000E+000	-9,0127739E+001	0,0000000E+000	0,0000000E+000	0,0000000E+000	1,2773819E-001	0,0000000E+000	0,0000000E+000	0,0000000E+000	-1,2773819E-001	4,4853995E+002	8,9872261E+001	7,009670175317208E-003