Folder: nife-mo-alkaline-oer-data/fig_2_xrd_bet/BET

Note: README.md
# Raw Data and Plot Scripts for the Manuscript

This repository contains the raw data and plotting scripts for the figures in the following manuscript:

**Varghese, N. K., Mkrtchian, E., Singh, A., Savio, L., Boccia, M., Marzocchi, V., & Comite, A., NiFe on CeO2, TiO2 and ZrO2 Supports as Efficient Oxygen Evolution Reaction Catalysts in Alkaline Media. ACS Appl. Energy Mater. 2025; doi:10.1021/acsaem.4c03268**

Each folder corresponds to a specific figure in the paper, with the folder name matching the figure number/details. Inside each folder, you will find the raw data files and the Python scripts used to generate the plots for that figure.

The **XPS plots** were generated using a commercial software. The folder `fig_3_and_si_xps` contains only the raw XPS data.

If you use this data, please cite the above article.

## License

This project is licensed under the **GNU General Public License (GPL)**, which allows you to freely use, modify and distribute the code, provided that any derivative works are also licensed under GPL.

File: coll_CeO2.txt
Relative Pressure (p/p°)	Absolute Pressure (mmHg)	Quantity Adsorbed (cm³/g STP)
0.00962913	7.43851	25.7296
0.0293693	22.6865	29.9197
0.0626726	48.409	33.8741
0.083435	64.4429	35.8256
0.0992951	76.6897	37.2285
0.119137	92.0115	38.86
0.138598	107.037	40.4688
0.158474	122.381	42.0419
0.178745	138.03	43.5987
0.198925	153.608	45.1305
0.248425	191.818	48.9486
0.30058	232.078	52.9768
0.35306	272.584	57.198
0.400443	309.149	61.2795
0.451637	348.652	65.8711
0.500557	386.381	70.5735
0.550686	425.044	75.7361
0.600342	463.336	81.297
0.651129	502.495	87.3974
0.701052	540.976	93.8065
0.752961	580.984	100.462
0.804337	620.579	106.328
0.818776	631.695	107.714
0.851086	656.586	110.264
0.877161	676.676	111.581
0.899211	693.674	112.275
0.925877	714.231	112.697
0.949639	732.547	112.899
0.975631	752.584	113.056
0.996942	768.951	113.376
0.974002	751.242	113.147
0.933865	720.279	112.952
0.90855	700.74	112.804
0.900603	694.604	112.738
0.873714	673.853	112.6
0.851003	656.331	112.467
0.824782	636.096	112.318
0.800394	617.281	112.159
0.750419	578.729	111.832
0.699743	539.637	111.445
0.649457	500.847	111.009
0.600946	463.419	110.382
0.555136	428.025	99.2673
0.503084	387.884	79.7817
0.427083	329.286	64.4207
0.404604	311.955	62.0272
0.342767	264.278	56.541
0.303935	234.338	53.3875
0.251234	193.704	49.2231
0.200081	154.265	45.2374
0.140592	108.398	40.5908

File: Ni50Fe50_CeO2.txt
Relative Pressure (p/p°)	Absolute Pressure (mmHg)	Quantity Adsorbed (cm³/g STP)
0.0105076	8.04105	11.8611
0.0331917	25.3992	14.0104
0.0636018	48.6679	15.593
0.0789146	60.3837	16.2421
0.100037	76.5442	17.0411
0.12003	91.8398	17.7378
0.140102	107.195	18.4127
0.160098	122.492	19.0666
0.180143	137.825	19.7011
0.2002	153.166	20.3347
0.248537	190.142	21.8318
0.300903	230.199	23.4943
0.351008	268.521	25.1143
0.400848	306.637	26.8438
0.451384	345.286	28.6804
0.500995	383.222	30.6706
0.551515	421.85	32.8646
0.601379	459.974	35.277
0.651442	498.247	38.0412
0.701509	536.514	41.2653
0.751468	574.694	45.1454
0.80102	612.551	50.05
0.823114	629.424	52.6335
0.850676	650.459	56.7477
0.876236	669.962	61.6356
0.900856	688.735	67.8172
0.925261	707.332	76.2567
0.949607	725.862	88.5131
0.970521	741.776	103.639
0.97904	748.222	112.736
0.986292	753.736	121.983
0.991107	757.415	129.883
0.980593	749.381	127.209
0.974067	744.393	123.557
0.954673	729.572	109.639
0.926881	708.333	94.0488
0.897066	685.548	83.9008
0.868728	663.892	77.299
0.853911	652.569	74.7136
0.826653	631.738	70.6286
0.798859	610.497	67.4308
0.750728	573.715	62.8485
0.699029	534.206	58.9009
0.650263	496.939	55.7026
0.599751	458.337	52.6713
0.549362	419.829	49.8841
0.500111	382.19	47.1371
0.448238	342.549	30.1014
0.392675	300.087	26.7924
0.337997	258.302	24.8103
0.303693	232.085	23.6486
0.249542	190.703	21.8964
0.199696	152.61	20.3232
0.139905	106.917	18.4115

File: Ni90Fe10_CeO2.txt
Relative Pressure (p/p°)	Absolute Pressure (mmHg)	Quantity Adsorbed (cm³/g STP)
0.0108457	8.33972	3.79617
0.0322433	24.7926	4.45572
0.0668446	51.3977	5.01854
0.079849	61.3955	5.18894
0.100222	77.0596	5.42277
0.12032	92.5116	5.63673
0.140226	107.814	5.84628
0.160235	123.197	6.03677
0.180228	138.567	6.22086
0.200344	154.03	6.40775
0.249949	192.165	6.85128
0.300904	231.337	7.30387
0.351045	269.88	7.7341
0.400898	308.203	8.17918
0.451169	346.842	8.63856
0.501286	385.365	9.10935
0.551331	423.828	9.62824
0.601601	462.462	10.1918
0.651555	500.857	10.8198
0.701623	539.332	11.5668
0.751605	577.74	12.5054
0.801517	616.092	13.778
0.821858	631.713	14.4473
0.851477	654.464	15.6375
0.875975	673.278	16.9533
0.901079	692.549	18.7281
0.925482	711.272	21.2011
0.948659	729.051	25.3298
0.973333	747.962	32.5439
0.981189	753.948	37.5583
0.990299	760.895	45.0289
0.995166	764.582	51.429
0.983734	755.773	48.4331
0.976969	750.542	44.6659
0.970976	745.894	41.1641
0.95679	734.947	33.968
0.922457	708.509	23.9385
0.896499	688.532	20.3055
0.867639	666.344	17.6902
0.853911	655.786	16.8003
0.826635	634.824	15.3973
0.799457	613.952	14.335
0.749025	575.222	12.9174
0.699459	537.158	11.8967
0.649456	498.757	11.0802
0.599239	460.192	10.3971
0.549309	421.848	9.8006
0.499468	383.572	9.2406
0.450068	345.636	8.55856
0.398188	305.793	8.03536
0.350055	268.83	7.58526
0.299217	229.787	7.1211
0.24945	191.568	6.65908
0.199567	153.26	6.19442
0.139713	107.294	5.60755