Folder: nife-mo-alkaline-oer-data/fig_2_xrd_bet/XRD

Note: README.md
# Raw Data and Plot Scripts for the Manuscript

This repository contains the raw data and plotting scripts for the figures in the following manuscript:

**Varghese, N. K., Mkrtchian, E., Singh, A., Savio, L., Boccia, M., Marzocchi, V., & Comite, A., NiFe on CeO2, TiO2 and ZrO2 Supports as Efficient Oxygen Evolution Reaction Catalysts in Alkaline Media. ACS Appl. Energy Mater. 2025; doi:10.1021/acsaem.4c03268**

Each folder corresponds to a specific figure in the paper, with the folder name matching the figure number/details. Inside each folder, you will find the raw data files and the Python scripts used to generate the plots for that figure.

The **XPS plots** were generated using a commercial software. The folder `fig_3_and_si_xps` contains only the raw XPS data.

If you use this data, please cite the above article.

## License

This project is licensed under the **GNU General Public License (GPL)**, which allows you to freely use, modify and distribute the code, provided that any derivative works are also licensed under GPL.

File: Ni90Fe10_CeO2_BB_Dtex.xy
10.00000 23223.000
10.24000 23077.000
10.48000 22228.000
10.72000 21872.000
10.96000 21514.000
11.20000 21192.000
11.44000 20339.000
11.68000 20094.000
11.92000 19561.000
12.16000 19240.000
12.40000 18901.000
12.64000 18410.000
12.88000 18417.000
13.12000 18178.000
13.36000 18036.000
13.60000 17740.000
13.84000 17240.000
14.08000 17039.000
14.32000 17032.000
14.56000 16739.000
14.80000 16542.000
15.04000 16255.000
15.28000 16174.000
15.52000 16043.000
15.76000 15730.000
16.00000 15789.000
16.24000 15487.000
16.48000 15214.000
16.72000 15129.000
16.96000 15294.000
17.20000 15074.000
17.44000 15091.000
17.68000 15140.000
17.92000 14783.000
18.16000 14985.000
18.40000 14786.000
18.64000 14716.000
18.88000 14641.000
19.12000 14639.000
19.36000 14664.000
19.60000 14935.000
19.84000 14854.000
20.08000 14713.000
20.32000 14751.000
20.56000 14576.000
20.80000 14684.000
21.04000 14364.000
21.28000 14349.000
21.52000 14506.000
21.76000 14477.000
22.00000 14513.000
22.24000 14575.000
22.48000 14284.000
22.72000 14234.000
22.96000 14550.000
23.20000 14463.000
23.44000 14343.000
23.68000 14407.000
23.92000 14351.000
24.16000 14600.000
24.40000 14453.000
24.64000 14550.000
24.88000 14690.000
25.12000 14604.000
25.36000 14612.000
25.60000 14731.000
25.84000 14844.000
26.08000 14933.000
26.32000 15161.000
26.56000 15323.000
26.80000 15687.000
27.04000 15883.000
27.28000 16600.000
27.52000 17192.000
27.76000 18144.000
28.00000 19567.000
28.24000 20892.000
28.48000 21546.000
28.72000 20929.000
28.96000 20026.000
29.20000 18738.000
29.44000 17749.000
29.68000 17151.000
29.92000 16608.000
30.16000 16260.000
30.40000 15900.000
30.64000 15744.000
30.88000 15806.000
31.12000 15772.000
31.36000 15820.000
31.60000 15996.000
31.84000 16058.000
32.08000 16189.000
32.32000 16829.000
32.56000 17316.000
32.80000 18080.000
33.04000 18658.000
33.28000 19295.000
33.52000 19694.000
33.76000 19968.000
34.00000 20018.000
34.24000 20077.000
34.48000 20015.000
34.72000 19595.000
34.96000 19000.000
35.20000 18974.000
35.44000 18859.000
35.68000 18542.000
35.92000 18422.000
36.16000 18084.000
36.40000 18115.000
36.64000 17990.000
36.88000 17580.000
37.12000 17801.000
37.36000 17639.000
37.60000 17696.000
37.84000 17469.000
38.08000 17401.000
38.32000 17344.000
38.56000 17139.000
38.80000 17195.000
39.04000 17093.000
39.28000 16965.000
39.52000 16999.000
39.76000 16811.000
40.00000 16836.000
40.24000 16749.000
40.48000 16648.000
40.72000 16676.000
40.96000 16553.000
41.20000 16524.000
41.44000 16352.000
41.68000 16489.000
41.92000 16565.000
42.16000 16513.000
42.40000 16334.000
42.64000 16235.000
42.88000 16277.000
43.12000 16391.000
43.36000 16214.000
43.60000 16137.000
43.84000 16361.000
44.08000 16239.000
44.32000 16153.000
44.56000 16304.000
44.80000 16019.000
45.04000 16315.000
45.28000 16403.000
45.52000 16518.000
45.76000 16589.000
46.00000 16693.000
46.24000 16939.000
46.48000 17551.000
46.72000 17790.000
46.96000 18520.000
47.20000 18970.000
47.44000 19176.000
47.68000 18831.000
47.92000 18155.000
48.16000 17592.000
48.40000 16831.000
48.64000 16626.000
48.88000 16251.000
49.12000 16003.000
49.36000 15739.000
49.60000 15617.000
49.84000 15568.000
50.08000 15239.000
50.32000 15376.000
50.56000 15162.000
50.80000 15183.000
51.04000 14960.000
51.28000 14966.000
51.52000 14895.000
51.76000 15003.000
52.00000 14786.000
52.24000 14893.000
52.48000 14885.000
52.72000 14761.000
52.96000 14794.000
53.20000 14875.000
53.44000 14675.000
53.68000 15099.000
53.92000 14783.000
54.16000 14769.000
54.40000 14905.000
54.64000 15112.000
54.88000 15199.000
55.12000 15279.000
55.36000 15876.000
55.60000 16330.000
55.84000 16416.000
56.08000 16827.000
56.32000 16830.000
56.56000 16705.000
56.80000 16514.000
57.04000 15988.000
57.28000 15678.000
57.52000 15484.000
57.76000 15250.000
58.00000 15337.000
58.24000 15209.000
58.48000 15269.000
58.72000 15604.000
58.96000 15588.000
59.20000 15845.000
59.44000 16084.000
59.68000 16412.000
59.92000 16506.000
60.16000 16665.000
60.40000 16826.000
60.64000 16605.000
60.88000 16465.000
61.12000 16393.000
61.36000 15993.000
61.60000 15692.000
61.84000 15334.000
62.08000 15120.000
62.32000 14944.000
62.56000 14744.000
62.80000 14500.000
63.04000 14394.000
63.28000 14253.000
63.52000 14280.000
63.76000 14078.000
64.00000 14185.000
64.24000 14103.000
64.48000 13967.000
64.72000 13894.000
64.96000 13762.000
65.20000 13782.000
65.44000 13894.000
65.68000 13689.000
65.92000 13555.000
66.16000 13625.000
66.40000 13643.000
66.64000 13564.000
66.88000 13738.000
67.12000 13502.000
67.36000 13627.000
67.60000 13415.000
67.84000 13471.000
68.08000 13364.000
68.32000 13392.000
68.56000 13681.000
68.80000 13515.000
69.04000 13659.000
69.28000 13694.000
69.52000 13870.000
69.76000 13824.000
70.00000 13800.000
70.24000 13691.000
70.48000 13723.000
70.72000 13576.000
70.96000 13714.000
71.20000 13682.000
71.44000 13491.000
71.68000 13533.000
71.92000 13609.000
72.16000 13595.000
72.40000 13305.000
72.64000 13532.000
72.88000 13452.000
73.12000 13235.000
73.36000 13293.000
73.60000 13424.000
73.84000 13312.000
74.08000 13212.000
74.32000 13328.000
74.56000 13386.000
74.80000 13233.000
75.04000 13338.000
75.28000 13381.000
75.52000 13412.000
75.76000 13489.000
76.00000 13727.000
76.24000 13634.000
76.48000 13674.000
76.72000 13762.000
76.96000 13740.000
77.20000 13514.000
77.44000 13527.000
77.68000 13411.000
77.92000 13443.000
78.16000 13697.000
78.40000 13254.000
78.64000 13581.000
78.88000 13285.000
79.12000 13200.000
79.36000 13488.000
79.60000 13226.000
79.84000 13203.000
79.99000 12987.000

File: Ni90Fe10_Ni_BB_Dtex.xy
5.00000 37889.000
5.29000 37046.000
5.58000 36454.000
5.87000 35668.000
6.16000 34873.000
6.45000 34314.000
6.74000 34016.000
7.03000 33323.000
7.32000 33096.000
7.61000 32437.000
7.90000 31926.000
8.19000 31564.000
8.48000 31121.000
8.77000 30651.000
9.06000 30211.000
9.35000 29574.000
9.64000 29138.000
9.93000 28513.000
10.22000 28089.000
10.51000 27570.000
10.80000 27119.000
11.09000 26737.000
11.38000 26341.000
11.67000 25907.000
11.96000 25646.000
12.25000 25305.000
12.54000 25121.000
12.83000 24428.000
13.12000 24234.000
13.41000 23966.000
13.70000 23644.000
13.99000 23767.000
14.28000 23340.000
14.57000 23017.000
14.86000 23035.000
15.15000 22570.000
15.44000 22559.000
15.73000 22531.000
16.02000 22082.000
16.31000 21912.000
16.60000 21964.000
16.89000 21738.000
17.18000 21668.000
17.47000 21799.000
17.76000 21558.000
18.05000 21673.000
18.34000 21664.000
18.63000 21766.000
18.92000 21790.000
19.21000 21468.000
19.50000 21624.000
19.79000 21482.000
20.08000 21557.000
20.37000 21653.000
20.66000 21771.000
20.95000 21292.000
21.24000 21474.000
21.53000 21490.000
21.82000 21746.000
22.11000 22016.000
22.40000 21764.000
22.69000 22163.000
22.98000 21966.000
23.27000 22103.000
23.56000 22107.000
23.85000 22286.000
24.14000 22323.000
24.43000 22327.000
24.72000 22293.000
25.01000 22883.000
25.30000 22852.000
25.59000 22971.000
25.88000 23283.000
26.17000 23237.000
26.46000 23406.000
26.75000 23567.000
27.04000 23792.000
27.33000 23615.000
27.62000 24018.000
27.91000 23841.000
28.20000 24200.000
28.49000 24307.000
28.78000 24385.000
29.07000 24586.000
29.36000 24838.000
29.65000 24812.000
29.94000 25134.000
30.23000 25130.000
30.52000 25383.000
30.81000 25412.000
31.10000 26022.000
31.39000 26749.000
31.68000 25919.000
31.97000 26311.000
32.26000 26352.000
32.55000 26870.000
32.84000 27349.000
33.13000 28174.000
33.42000 28730.000
33.71000 29457.000
34.00000 30368.000
34.29000 30736.000
34.58000 30512.000
34.87000 30835.000
35.16000 30496.000
35.45000 30157.000
35.74000 29958.000
36.03000 29717.000
36.32000 29469.000
36.61000 29850.000
36.90000 29287.000
37.19000 29250.000
37.48000 28980.000
37.77000 28821.000
38.06000 28544.000
38.35000 28837.000
38.64000 28662.000
38.93000 28617.000
39.22000 28583.000
39.51000 28620.000
39.80000 28491.000
40.09000 28166.000
40.38000 28265.000
40.67000 28465.000
40.96000 28364.000
41.25000 27906.000
41.54000 28041.000
41.83000 27708.000
42.12000 27964.000
42.41000 28162.000
42.70000 27792.000
42.99000 27774.000
43.28000 27953.000
43.57000 27702.000
43.86000 27637.000
44.15000 27903.000
44.44000 27829.000
44.73000 27862.000
45.02000 27789.000
45.31000 27854.000
45.60000 27258.000
45.89000 27396.000
46.18000 27263.000
46.47000 26973.000
46.76000 26877.000
47.05000 26751.000
47.34000 26821.000
47.63000 26426.000
47.92000 26635.000
48.21000 26204.000
48.50000 26150.000
48.79000 25909.000
49.08000 25616.000
49.37000 25578.000
49.66000 25271.000
49.95000 25295.000
50.24000 25129.000
50.53000 25225.000
50.82000 24726.000
51.11000 24573.000
51.40000 24170.000
51.69000 24320.000
51.98000 24182.000
52.27000 24044.000
52.56000 24160.000
52.85000 23744.000
53.14000 23857.000
53.43000 24046.000
53.72000 24071.000
54.01000 23677.000
54.30000 23536.000
54.59000 23357.000
54.88000 23590.000
55.17000 23093.000
55.46000 23332.000
55.75000 23335.000
56.04000 23179.000
56.33000 23267.000
56.62000 22910.000
56.91000 23216.000
57.20000 23135.000
57.49000 23361.000
57.78000 23112.000
58.07000 23277.000
58.36000 23455.000
58.65000 23470.000
58.94000 23387.000
59.23000 23763.000
59.52000 23997.000
59.81000 24485.000
60.10000 24505.000
60.39000 25145.000
60.68000 24911.000
60.97000 24675.000
61.26000 24745.000
61.55000 24147.000
61.84000 23828.000
62.13000 23637.000
62.42000 23539.000
62.71000 23140.000
63.00000 23080.000
63.29000 22712.000
63.58000 22688.000
63.87000 22520.000
64.16000 22337.000
64.45000 22266.000
64.74000 22149.000
65.03000 21944.000
65.32000 22001.000
65.61000 21827.000
65.90000 22044.000
66.19000 21651.000
66.48000 21492.000
66.77000 21569.000
67.06000 21568.000
67.35000 21306.000
67.64000 21421.000
67.93000 21538.000
68.22000 21389.000
68.51000 21467.000
68.80000 21092.000
69.09000 21183.000
69.38000 21160.000
69.67000 21186.000
69.96000 21113.000
70.25000 21070.000
70.54000 21249.000
70.83000 21120.000
71.12000 21195.000
71.41000 21480.000
71.70000 21206.000
71.99000 21003.000
72.28000 20998.000
72.57000 21234.000
72.86000 20985.000
73.15000 20790.000
73.44000 20728.000
73.73000 20704.000
74.02000 20807.000
74.31000 20866.000
74.60000 20656.000
74.89000 20430.000
75.18000 20649.000
75.47000 20491.000
75.76000 20305.000
76.05000 20513.000
76.34000 20330.000
76.63000 20147.000
76.92000 20138.000
77.21000 20341.000
77.50000 20020.000
77.79000 20223.000
78.08000 20223.000
78.37000 20059.000
78.66000 20269.000
78.95000 20178.000
79.24000 20136.000
79.53000 20195.000
79.82000 20014.000
80.11000 20000.000
80.40000 19878.000
80.69000 19632.000
80.98000 19730.000
81.27000 19614.000
81.56000 19843.000
81.85000 19738.000
82.14000 19603.000
82.43000 19626.000
82.72000 19678.000
83.01000 19966.000
83.30000 19570.000
83.59000 19358.000
83.88000 19574.000
84.17000 19536.000
84.46000 19601.000
84.75000 19313.000
85.04000 19523.000
85.33000 19188.000
85.62000 19246.000
85.91000 19231.000
86.20000 19174.000
86.49000 19151.000
86.78000 19377.000
87.07000 19156.000
87.36000 19079.000
87.65000 19132.000
87.94000 18775.000
88.23000 19047.000
88.52000 18725.000
88.81000 18842.000
89.10000 18834.000
89.39000 18716.000
89.68000 18818.000
89.97000 18823.000
89.98000 18854.000

File: Ni90Fe10_TiO2_BB_Dtex.xy
10.00000 23349.000
10.24000 22974.000
10.48000 22761.000
10.72000 22140.000
10.96000 21736.000
11.20000 21208.000
11.44000 20556.000
11.68000 20465.000
11.92000 19834.000
12.16000 19714.000
12.40000 19422.000
12.64000 19064.000
12.88000 18545.000
13.12000 18522.000
13.36000 18047.000
13.60000 17805.000
13.84000 17779.000
14.08000 17643.000
14.32000 17521.000
14.56000 17133.000
14.80000 17183.000
15.04000 16821.000
15.28000 16968.000
15.52000 16868.000
15.76000 16745.000
16.00000 16608.000
16.24000 16363.000
16.48000 16473.000
16.72000 16469.000
16.96000 16426.000
17.20000 16295.000
17.44000 16278.000
17.68000 16240.000
17.92000 16231.000
18.16000 16244.000
18.40000 16290.000
18.64000 16395.000
18.88000 16291.000
19.12000 16411.000
19.36000 16479.000
19.60000 16372.000
19.84000 16369.000
20.08000 16205.000
20.32000 16344.000
20.56000 16124.000
20.80000 16356.000
21.04000 16249.000
21.28000 16228.000
21.52000 16135.000
21.76000 16121.000
22.00000 16084.000
22.24000 15983.000
22.48000 16349.000
22.72000 15864.000
22.96000 16215.000
23.20000 15956.000
23.44000 16024.000
23.68000 15955.000
23.92000 16006.000
24.16000 15955.000
24.40000 15905.000
24.64000 16017.000
24.88000 15885.000
25.12000 16095.000
25.36000 15969.000
25.60000 16040.000
25.84000 16121.000
26.08000 16297.000
26.32000 16159.000
26.56000 16234.000
26.80000 16349.000
27.04000 17273.000
27.28000 19286.000
27.52000 19430.000
27.76000 17239.000
28.00000 16460.000
28.24000 16481.000
28.48000 16243.000
28.72000 16240.000
28.96000 16093.000
29.20000 15997.000
29.44000 16075.000
29.68000 15984.000
29.92000 16048.000
30.16000 16233.000
30.40000 15878.000
30.64000 16172.000
30.88000 15822.000
31.12000 16015.000
31.36000 16005.000
31.60000 16073.000
31.84000 16323.000
32.08000 16273.000
32.32000 16546.000
32.56000 16856.000
32.80000 17228.000
33.04000 17751.000
33.28000 18346.000
33.52000 19498.000
33.76000 20138.000
34.00000 20716.000
34.24000 21107.000
34.48000 20901.000
34.72000 20885.000
34.96000 20880.000
35.20000 20631.000
35.44000 20435.000
35.68000 20415.000
35.92000 20801.000
36.16000 22037.000
36.40000 20453.000
36.64000 19590.000
36.88000 19305.000
37.12000 19381.000
37.36000 19225.000
37.60000 19088.000
37.84000 18784.000
38.08000 18989.000
38.32000 18715.000
38.56000 18561.000
38.80000 18799.000
39.04000 18558.000
39.28000 18339.000
39.52000 18434.000
39.76000 18296.000
40.00000 18044.000
40.24000 17947.000
40.48000 17947.000
40.72000 17858.000
40.96000 17982.000
41.20000 18923.000
41.44000 18785.000
41.68000 17704.000
41.92000 17595.000
42.16000 17643.000
42.40000 17449.000
42.64000 17291.000
42.88000 17223.000
43.12000 17245.000
43.36000 17226.000
43.60000 17223.000
43.84000 17525.000
44.08000 17360.000
44.32000 17307.000
44.56000 16928.000
44.80000 16952.000
45.04000 17108.000
45.28000 16842.000
45.52000 17004.000
45.76000 16715.000
46.00000 16676.000
46.24000 16782.000
46.48000 16469.000
46.72000 16734.000
46.96000 16203.000
47.20000 16494.000
47.44000 16299.000
47.68000 16172.000
47.92000 16203.000
48.16000 16143.000
48.40000 16132.000
48.64000 16022.000
48.88000 15984.000
49.12000 16095.000
49.36000 15922.000
49.60000 15850.000
49.84000 15603.000
50.08000 15762.000
50.32000 15787.000
50.56000 15718.000
50.80000 15603.000
51.04000 15509.000
51.28000 15475.000
51.52000 15547.000
51.76000 15179.000
52.00000 15402.000
52.24000 15248.000
52.48000 15301.000
52.72000 15236.000
52.96000 15323.000
53.20000 15114.000
53.44000 15200.000
53.68000 15557.000
53.92000 15750.000
54.16000 16586.000
54.40000 17189.000
54.64000 16303.000
54.88000 15556.000
55.12000 15231.000
55.36000 14947.000
55.60000 15180.000
55.84000 15085.000
56.08000 15251.000
56.32000 15148.000
56.56000 15554.000
56.80000 15317.000
57.04000 15024.000
57.28000 14760.000
57.52000 14912.000
57.76000 14983.000
58.00000 15008.000
58.24000 15015.000
58.48000 14913.000
58.72000 15308.000
58.96000 15614.000
59.20000 15763.000
59.44000 15844.000
59.68000 16274.000
59.92000 16651.000
60.16000 16802.000
60.40000 17020.000
60.64000 17159.000
60.88000 17045.000
61.12000 16761.000
61.36000 16435.000
61.60000 16245.000
61.84000 15934.000
62.08000 15653.000
62.32000 15499.000
62.56000 15271.000
62.80000 15207.000
63.04000 15413.000
63.28000 15113.000
63.52000 14833.000
63.76000 14773.000
64.00000 14480.000
64.24000 14599.000
64.48000 14414.000
64.72000 14273.000
64.96000 14142.000
65.20000 14218.000
65.44000 13905.000
65.68000 14030.000
65.92000 13913.000
66.16000 13964.000
66.40000 13785.000
66.64000 13915.000
66.88000 13604.000
67.12000 13600.000
67.36000 13623.000
67.60000 13657.000
67.84000 13648.000
68.08000 13551.000
68.32000 13630.000
68.56000 13898.000
68.80000 13684.000
69.04000 14006.000
69.28000 13781.000
69.52000 13828.000
69.76000 13912.000
70.00000 13630.000
70.24000 13649.000
70.48000 13724.000
70.72000 13893.000
70.96000 13696.000
71.20000 13703.000
71.44000 13574.000
71.68000 13641.000
71.92000 13622.000
72.16000 13636.000
72.40000 13377.000
72.64000 13423.000
72.88000 13420.000
73.12000 13286.000
73.36000 13440.000
73.60000 13349.000
73.84000 13357.000
74.08000 13140.000
74.32000 13326.000
74.56000 13172.000
74.80000 13009.000
75.04000 13032.000
75.28000 13057.000
75.52000 12924.000
75.76000 12921.000
76.00000 12943.000
76.24000 12934.000
76.48000 13022.000
76.72000 13004.000
76.96000 12902.000
77.20000 12653.000
77.44000 12591.000
77.68000 12721.000
77.92000 12759.000
78.16000 12646.000
78.40000 12576.000
78.64000 12632.000
78.88000 12699.000
79.12000 12643.000
79.36000 12454.000
79.60000 12398.000
79.84000 12269.000
79.99000 12598.000